Wavelength [nm]	Wavenumbers [1/cm]	Cu_10uM	Cu_12,5uM	Cu_25uM	Cu_50uM	Cu_5uM
183.000	54644.81	0.1886	0.2053	0.299	0.1986	0.2244
183.500	54495.91	0.1069	-0.05362	0.1333	0.07198	0.02128
184.000	54347.83	-0.0085	-0.1478	-0.01947	-0.07377	-0.02258
184.500	54200.54	-0.04847	-0.01347	-0.02328	-0.1083	0.125
185.000	54054.05	-0.01226	0.1252	0.1012	-0.05022	0.1137
185.500	53908.36	0.1036	0.1852	0.2614	0.0603	0.07405
186.000	53763.44	0.2748	0.1654	0.2155	0.1374	0.2197
186.500	53619.30	0.3145	0.1436	0.1306	0.1668	0.3442
187.000	53475.94	0.1699	0.1464	0.1096	0.1862	0.2498
187.500	53333.33	0.06441	0.1505	0.2365	0.207	0.1295
188.000	53191.49	0.01053	0.1046	0.392	0.2099	0.02262
188.500	53050.40	-0.1672	-0.05339	0.0845	0.1631	-0.2115
189.000	52910.05	-0.3334	-0.1594	-0.2012	0.08934	-0.3371
189.500	52770.45	-0.1658	0.0815	0.02191	0.1377	0.05462
190.000	52631.58	0.03297	0.1714	0.222	0.2307	0.2533
190.500	52493.44	0.1626	0.02909	0.1449	0.3332	-0.0151
191.000	52356.02	0.1462	-0.05526	0.01617	0.2758	-0.11
191.500	52219.32	0.02853	-0.04343	-0.06931	0.09569	-0.07617
192.000	52083.33	-0.02982	0.007208	-0.0904	-0.007245	-0.112
192.500	51948.05	-0.03454	0.07997	-0.0226	0.0127	-0.1249
193.000	51813.47	-0.01055	0.1446	0.1	0.1358	-0.07316
193.500	51679.59	0.0457	0.09787	0.06785	0.2597	-0.05025
194.000	51546.39	0.1183	0.007139	-0.02009	0.3199	-0.06252
194.500	51413.88	0.1447	0.002996	0.08499	0.3471	-0.03956
195.000	51282.05	0.1314	0.04842	0.2457	0.3327	0.0005108
195.500	51150.90	0.1185	0.09706	0.1845	0.3141	0.04024
196.000	51020.41	0.1314	0.1641	0.1364	0.485	0.1321
196.500	50890.59	0.1418	0.1897	0.1791	0.7288	0.2208
197.000	50761.42	0.09122	0.08638	0.2198	0.3683	0.183
197.500	50632.91	0.02414	-0.06096	0.2461	0.02277	0.04838
198.000	50505.05	0.1045	5.423E-5	0.23	0.1733	0.03938
198.500	50377.83	0.1648	0.06329	0.1976	0.3795	0.05698
199.000	50251.26	0.127	0.03444	0.1618	0.3034	0.04517
199.500	50125.31	0.02963	0.03053	0.1464	0.2043	0.09949
200.000	50000.00	-0.02085	0.07215	0.1185	0.1177	0.1641
200.500	49875.31	0.09915	0.05494	0.0201	-0.02611	0.00158
201.000	49751.24	0.2132	0.003486	-0.0115	-0.05225	-0.09861
201.500	49627.79	0.09404	-0.007897	0.07668	0.09159	-0.02189
202.000	49504.95	0.03366	0.06822	0.1467	0.1637	0.1094
202.500	49382.72	0.03011	0.1745	0.1315	0.08719	0.1361
203.000	49261.08	-0.06639	0.1055	0.07888	0.03283	-0.05535
203.500	49140.05	-0.1503	-0.05007	-0.003753	-0.0244	-0.2208
204.000	49019.61	-0.01276	-0.02362	-0.01761	-0.05903	-0.08535
204.500	48899.76	0.07462	-0.032	0.06529	0.03478	0.005884
205.000	48780.49	0.01247	-0.1308	0.2677	0.3054	-0.08456
205.500	48661.80	-0.0925	-0.1836	0.3273	0.1871	-0.1929
206.000	48543.69	-0.1141	-0.1083	0.1028	-0.1097	-0.1937
206.500	48426.15	0.01342	0.03271	0.03717	-0.01407	-0.0607
207.000	48309.18	0.1356	0.04635	0.04456	0.1297	0.003042
207.500	48192.77	0.1475	-0.05665	0.06129	0.08763	-0.05779
208.000	48076.92	0.04944	-0.00188	0.1402	0.1685	0.03105
208.500	47961.63	-0.01053	0.2141	0.183	0.3443	0.2357
209.000	47846.89	0.00301	0.3333	0.08246	0.219	0.1844
209.500	47732.70	0.03248	0.2169	-0.04944	0.03023	0.02539
210.000	47619.05	0.02007	0.005191	-0.08329	0.009954	-0.02715
210.500	47505.94	0.09561	0.1185	0.08611	0.2295	0.01827
211.000	47393.36	0.2126	0.5255	0.2903	0.3966	0.06183
211.500	47281.32	0.2231	0.5125	0.2247	0.1299	0.06461
212.000	47169.81	0.1132	0.157	0.04506	-0.1034	0.04873
212.500	47058.82	0.01245	0.08547	0.07267	0.1087	0.05507
213.000	46948.36	-0.03299	0.1714	0.08201	0.3244	0.02732
213.500	46838.41	-0.06377	0.2858	-0.06839	0.01804	-0.05321
214.000	46728.97	0.002191	0.1319	-0.09189	0.002145	-0.03334
214.500	46620.05	0.1017	0.005711	0.02584	0.3526	0.0643
215.000	46511.63	0.1197	0.05816	0.09106	0.6288	0.09543
215.500	46403.71	0.07563	0.1271	0.1915	0.4171	0.1393
216.000	46296.30	0.02316	0.05468	0.5098	0.09039	0.2772
216.500	46189.38	0.1031	0.04185	0.5133	0.0606	0.2192
217.000	46082.95	0.266	0.1439	0.1454	0.3471	0.02638
217.500	45977.01	0.0685	0.133	0.04785	0.4396	0.02285
218.000	45871.56	-0.08698	0.06315	0.08139	0.2586	0.1352
218.500	45766.59	0.03009	0.08375	0.1234	0.2119	0.1721
219.000	45662.10	0.2053	0.1483	0.1673	0.1995	0.1364
219.500	45558.09	0.2389	0.1834	0.2087	0.1931	0.08241
220.000	45454.55	0.191	0.07067	0.166	0.3252	0.03159
220.500	45351.47	0.1371	-0.02477	0.1137	0.6025	0.0121
221.000	45248.87	0.1128	0.1276	0.2107	0.4237	0.04625
221.500	45146.73	0.02996	0.2543	0.2816	0.2183	0.04303
222.000	45045.05	-0.1233	0.03963	0.1455	0.1565	-0.05068
222.500	44943.82	-0.06002	0.01311	0.05633	0.3633	-0.07979
223.000	44843.05	0.1964	0.1892	0.09158	0.655	-0.0362
223.500	44742.73	0.192	0.1113	0.09458	0.3699	-0.07215
224.000	44642.86	0.02384	-0.04572	0.09745	0.09861	-0.1045
224.500	44543.43	0.01641	0.02136	0.1818	0.1589	0.01804
225.000	44444.44	0.1053	0.1831	0.268	0.2962	0.1344
225.500	44345.90	0.1673	0.2597	0.268	0.3013	0.1337
226.000	44247.79	0.08874	0.1641	0.147	0.2284	0.1171
226.500	44150.11	-0.02808	0.05892	0.04836	0.176	0.1077
227.000	44052.86	-0.02689	0.1328	0.1415	0.2366	0.09531
227.500	43956.04	0.09066	0.3135	0.4513	0.3012	0.1265
228.000	43859.65	0.2221	0.3598	0.6915	0.2708	0.1748
228.500	43763.68	0.182	0.2103	0.2606	0.2669	0.09812
229.000	43668.12	0.03951	0.05432	-0.03633	0.3107	-0.003609
229.500	43572.98	0.06081	0.1394	0.2093	0.3126	0.1274
230.000	43478.26	0.1346	0.2448	0.6845	0.3108	0.2237
230.500	43383.95	0.1494	0.1606	0.3209	0.3644	0.04021
231.000	43290.04	0.1026	0.05148	0.02621	0.4439	-0.1227
231.500	43196.54	0.08275	0.09139	0.06069	0.438	-0.0717
232.000	43103.45	0.155	0.2232	0.1919	0.4007	0.09581
232.500	43010.75	0.1866	0.2904	0.2535	0.322	0.1924
233.000	42918.45	0.06915	0.1627	0.1769	0.1862	0.06488
233.500	42826.55	0.008581	0.01914	0.1805	0.1675	0.008278
234.000	42735.04	0.106	0.005725	0.3856	0.3776	0.1524
234.500	42643.92	0.0748	0.05791	0.3187	0.4547	0.06065
235.000	42553.19	-0.01189	0.1163	0.1321	0.3123	-0.1022
235.500	42462.85	0.0715	0.1225	0.1512	0.239	-0.04341
236.000	42372.88	0.2185	0.1105	0.2604	0.2584	0.1688
236.500	42283.30	0.2228	0.1124	0.3024	0.3351	0.3259
237.000	42194.09	0.1554	0.09589	0.2944	0.3993	0.2058
237.500	42105.26	0.1191	0.09817	0.317	0.4491	0.03018
238.000	42016.81	0.1876	0.2042	0.4535	0.5347	0.0493
238.500	41928.72	0.1959	0.2251	0.4405	0.5805	0.09781
239.000	41841.00	0.008727	0.01307	0.1445	0.5093	-0.008554
239.500	41753.65	-0.07052	-0.04626	0.08061	0.4206	-0.02692
240.000	41666.67	0.08022	0.1802	0.3934	0.4161	0.1458
240.500	41580.04	0.205	0.316	0.5907	0.3992	0.1905
241.000	41493.78	0.2065	0.2543	0.4482	0.3576	0.112
241.500	41407.87	0.08861	0.1431	0.2701	0.3252	0.05538
242.000	41322.31	0.0493	0.1366	0.2651	0.4012	0.07917
242.500	41237.11	0.1417	0.222	0.4261	0.5319	0.126
243.000	41152.26	0.1819	0.171	0.4536	0.467	0.05406
243.500	41067.76	0.1567	0.05793	0.3082	0.3001	-0.06058
244.000	40983.61	0.1647	0.1668	0.2304	0.3316	0.01913
244.500	40899.80	0.1619	0.313	0.227	0.47	0.1395
245.000	40816.33	0.1304	0.2409	0.2326	0.5383	0.1093
245.500	40733.20	0.2051	0.1276	0.2971	0.4206	0.04619
246.000	40650.41	0.3661	0.1031	0.3961	0.2907	0.02514
246.500	40567.95	0.3377	0.1866	0.4141	0.2877	0.02634
247.000	40485.83	0.178	0.2745	0.3425	0.3643	0.01529
247.500	40404.04	0.06455	0.1811	0.2488	0.4401	-0.01887
248.000	40322.58	0.1222	0.1388	0.2617	0.42	0.03548
248.500	40241.45	0.292	0.2129	0.3523	0.3871	0.1423
249.000	40160.64	0.2749	0.2433	0.3442	0.5256	0.1002
249.500	40080.16	0.1223	0.2275	0.271	0.9881	-0.03365
250.000	40000.00	0.08628	0.2433	0.2831	0.9135	-0.06814
250.500	39920.16	0.1452	0.2672	0.3337	0.6909	-0.01349
251.000	39840.64	0.2011	0.2782	0.3551	0.7029	0.04
251.500	39761.43	0.2025	0.3015	0.3674	0.7278	0.0291
252.000	39682.54	0.1742	0.3155	0.3856	0.7696	-0.01194
252.500	39603.96	0.1577	0.2935	0.4121	0.9021	-0.03208
253.000	39525.69	0.166	0.2837	0.4424	1.061	-0.02526
253.500	39447.73	0.1908	0.3027	0.4684	1.143	-0.006204
254.000	39370.08	0.2072	0.3259	0.4783	1.156	-0.002019
254.500	39292.73	0.2096	0.3328	0.477	1.15	-0.008625
255.000	39215.69	0.2044	0.3135	0.4767	1.163	-0.008658
255.500	39138.94	0.2022	0.2992	0.4797	1.176	-0.004703
256.000	39062.50	0.2077	0.31	0.4846	1.172	-0.002583
256.500	38986.35	0.2096	0.3203	0.4884	1.171	-0.001146
257.000	38910.51	0.2051	0.3191	0.4914	1.182	0.0003898
257.500	38834.95	0.2019	0.3182	0.4967	1.192	0.001252
258.000	38759.69	0.2025	0.3184	0.4999	1.196	0.002545
258.500	38684.72	0.2059	0.3162	0.4961	1.195	0.005763
259.000	38610.04	0.208	0.3152	0.4971	1.193	0.009796
259.500	38535.65	0.2064	0.3169	0.5076	1.196	0.01334
260.000	38461.54	0.2029	0.3168	0.5152	1.212	0.01601
260.500	38387.72	0.1999	0.314	0.5157	1.221	0.01808
261.000	38314.18	0.1989	0.3106	0.5125	1.189	0.02008
261.500	38240.92	0.1978	0.3076	0.5092	1.162	0.02133
262.000	38167.94	0.1953	0.3053	0.508	1.171	0.02177
262.500	38095.24	0.1944	0.3034	0.5105	1.179	0.0237
263.000	38022.81	0.1947	0.3024	0.5138	1.169	0.02718
263.500	37950.66	0.1924	0.3026	0.5119	1.16	0.02985
264.000	37878.79	0.1893	0.3028	0.5089	1.156	0.03199
264.500	37807.18	0.1886	0.3014	0.5102	1.158	0.03463
265.000	37735.85	0.1879	0.3	0.5104	1.168	0.03689
265.500	37664.78	0.1864	0.2994	0.507	1.176	0.03851
266.000	37593.98	0.1865	0.2987	0.5049	1.16	0.04055
266.500	37523.45	0.1874	0.2978	0.5055	1.137	0.04302
267.000	37453.18	0.1866	0.2969	0.5077	1.133	0.04528
267.500	37383.18	0.185	0.2958	0.5093	1.135	0.04702
268.000	37313.43	0.1837	0.2944	0.5088	1.128	0.04816
268.500	37243.95	0.1834	0.2923	0.5067	1.119	0.04896
269.000	37174.72	0.1834	0.2903	0.5047	1.113	0.04985
269.500	37105.75	0.182	0.2894	0.5047	1.112	0.05126
270.000	37037.04	0.1802	0.2886	0.5054	1.112	0.05288
270.500	36968.58	0.1793	0.287	0.5047	1.113	0.05417
271.000	36900.37	0.1785	0.2855	0.5033	1.109	0.05487
271.500	36832.41	0.1774	0.2845	0.5018	1.101	0.05515
272.000	36764.71	0.1763	0.2834	0.4999	1.092	0.05571
272.500	36697.25	0.1754	0.282	0.4983	1.085	0.05686
273.000	36630.04	0.1749	0.2802	0.4972	1.08	0.05846
273.500	36563.07	0.1739	0.2785	0.4945	1.071	0.05951
274.000	36496.35	0.172	0.2766	0.4899	1.059	0.0596
274.500	36429.87	0.1701	0.2743	0.4873	1.053	0.05971
275.000	36363.64	0.1688	0.2717	0.4857	1.049	0.06032
275.500	36297.64	0.168	0.2697	0.4818	1.04	0.06135
276.000	36231.88	0.1672	0.2679	0.4772	1.028	0.06227
276.500	36166.37	0.1662	0.2655	0.474	1.016	0.06264
277.000	36101.08	0.165	0.2629	0.4696	1.004	0.06261
277.500	36036.04	0.1638	0.2601	0.465	0.9942	0.06264
278.000	35971.22	0.1629	0.257	0.4637	0.9897	0.06326
278.500	35906.64	0.1622	0.2549	0.4631	0.9862	0.06382
279.000	35842.29	0.1613	0.2548	0.4596	0.9789	0.06365
279.500	35778.18	0.1602	0.2539	0.4562	0.9722	0.06382
280.000	35714.29	0.1591	0.2513	0.4548	0.9688	0.06452
280.500	35650.62	0.1585	0.2497	0.4538	0.9667	0.0644
281.000	35587.19	0.158	0.2493	0.4526	0.9642	0.06426
281.500	35523.98	0.1571	0.2489	0.4512	0.9606	0.06567
282.000	35460.99	0.157	0.2486	0.4498	0.9559	0.06697
282.500	35398.23	0.1579	0.2479	0.4485	0.9502	0.06696
283.000	35335.69	0.1574	0.2462	0.4476	0.943	0.06675
283.500	35273.37	0.1558	0.2445	0.4468	0.9382	0.06682
284.000	35211.27	0.1558	0.2447	0.4462	0.9409	0.06689
284.500	35149.38	0.156	0.2448	0.4455	0.9424	0.06685
285.000	35087.72	0.1548	0.2432	0.4447	0.9357	0.06676
285.500	35026.27	0.154	0.2422	0.4437	0.9305	0.06707
286.000	34965.03	0.1541	0.2422	0.4429	0.9292	0.06775
286.500	34904.01	0.1537	0.2416	0.4427	0.9254	0.06834
287.000	34843.21	0.153	0.241	0.4427	0.9217	0.06884
287.500	34782.61	0.1527	0.2411	0.4423	0.9219	0.06928
288.000	34722.22	0.1526	0.2402	0.4413	0.9212	0.06925
288.500	34662.05	0.1521	0.2381	0.4395	0.918	0.06869
289.000	34602.08	0.1512	0.2365	0.4367	0.916	0.06814
289.500	34542.31	0.1503	0.2359	0.4345	0.9121	0.06819
290.000	34482.76	0.1502	0.2355	0.4345	0.9026	0.06918
290.500	34423.41	0.1502	0.2348	0.4344	0.8945	0.07029
291.000	34364.26	0.1496	0.2339	0.4325	0.8925	0.07058
291.500	34305.32	0.1484	0.233	0.4297	0.893	0.06943
292.000	34246.58	0.1471	0.2321	0.4277	0.8916	0.06828
292.500	34188.03	0.1468	0.2309	0.4279	0.8851	0.06926
293.000	34129.69	0.1468	0.2297	0.4273	0.8808	0.07056
293.500	34071.55	0.1466	0.2292	0.4242	0.8828	0.07048
294.000	34013.61	0.1461	0.2292	0.4226	0.8829	0.07014
294.500	33955.86	0.1457	0.229	0.4229	0.8774	0.07007
295.000	33898.31	0.1455	0.2277	0.4224	0.8692	0.06996
295.500	33840.95	0.1454	0.2264	0.4214	0.8638	0.06992
296.000	33783.78	0.1452	0.2262	0.4209	0.8648	0.07004
296.500	33726.81	0.145	0.2264	0.4207	0.867	0.07
297.000	33670.03	0.1447	0.2263	0.4206	0.8674	0.06984
297.500	33613.45	0.1441	0.2264	0.4199	0.8672	0.07007
298.000	33557.05	0.1438	0.2265	0.4199	0.8669	0.07056
298.500	33500.84	0.1439	0.2265	0.4215	0.8668	0.0709
299.000	33444.82	0.1439	0.2268	0.4237	0.8698	0.0709
299.500	33388.98	0.1437	0.2275	0.4254	0.8755	0.07084
300.000	33333.33	0.1443	0.2282	0.4271	0.8788	0.07158
300.500	33277.87	0.1453	0.2288	0.4292	0.8803	0.07248
301.000	33222.59	0.1456	0.2296	0.4322	0.8841	0.07235
301.500	33167.50	0.1458	0.2311	0.4355	0.8907	0.07212
302.000	33112.58	0.1465	0.2332	0.439	0.8987	0.07268
302.500	33057.85	0.1475	0.2351	0.4426	0.9056	0.07359
303.000	33003.30	0.1484	0.2368	0.4465	0.9117	0.07437
303.500	32948.93	0.1487	0.2387	0.4507	0.9198	0.07474
304.000	32894.74	0.1491	0.241	0.4552	0.9293	0.075
304.500	32840.72	0.1502	0.2434	0.4598	0.9387	0.07553
305.000	32786.89	0.1512	0.246	0.4647	0.9489	0.07625
305.500	32733.22	0.1522	0.2487	0.4701	0.9602	0.077
306.000	32679.74	0.1538	0.2519	0.4763	0.9724	0.07759
306.500	32626.43	0.1553	0.2554	0.4833	0.9851	0.07813
307.000	32573.29	0.1558	0.259	0.4908	0.9978	0.07884
307.500	32520.33	0.1567	0.262	0.4975	1.011	0.07989
308.000	32467.53	0.1586	0.2648	0.5037	1.024	0.08109
308.500	32414.91	0.16	0.2685	0.5111	1.039	0.08185
309.000	32362.46	0.161	0.2726	0.5194	1.055	0.08217
309.500	32310.18	0.1622	0.2758	0.5267	1.072	0.08254
310.000	32258.06	0.1639	0.2794	0.5346	1.087	0.08349
310.500	32206.12	0.1659	0.2844	0.5441	1.101	0.08507
311.000	32154.34	0.1681	0.2895	0.5535	1.118	0.08647
311.500	32102.73	0.1701	0.2941	0.5621	1.137	0.08727
312.000	32051.28	0.1715	0.2977	0.571	1.155	0.08762
312.500	32000.00	0.1727	0.3015	0.5797	1.172	0.08841
313.000	31948.88	0.1745	0.3065	0.5881	1.19	0.09013
313.500	31897.93	0.1768	0.3119	0.5982	1.209	0.09164
314.000	31847.13	0.1791	0.3171	0.6094	1.228	0.09249
314.500	31796.50	0.1809	0.3217	0.6188	1.248	0.09319
315.000	31746.03	0.1826	0.3264	0.628	1.269	0.0942
315.500	31695.72	0.1849	0.3319	0.6394	1.29	0.09565
316.000	31645.57	0.1871	0.3372	0.6504	1.307	0.097
316.500	31595.58	0.1889	0.342	0.66	1.322	0.09791
317.000	31545.74	0.1915	0.3469	0.6708	1.341	0.09862
317.500	31496.06	0.1939	0.3517	0.6826	1.366	0.09957
318.000	31446.54	0.1949	0.3565	0.6937	1.388	0.1011
318.500	31397.17	0.1966	0.3624	0.7044	1.41	0.1026
319.000	31347.96	0.2	0.3695	0.715	1.431	0.1036
319.500	31298.90	0.2027	0.3749	0.725	1.45	0.1047
320.000	31250.00	0.2044	0.3793	0.735	1.469	0.1059
320.500	31201.25	0.2066	0.3854	0.7467	1.493	0.1075
321.000	31152.65	0.2089	0.3915	0.7587	1.519	0.1087
321.500	31104.20	0.2109	0.3958	0.7694	1.542	0.1094
322.000	31055.90	0.2134	0.4005	0.7799	1.561	0.1103
322.500	31007.75	0.2159	0.406	0.7911	1.579	0.1114
323.000	30959.75	0.2173	0.4116	0.8031	1.599	0.1125
323.500	30911.90	0.2189	0.4174	0.8136	1.618	0.1136
324.000	30864.20	0.222	0.4238	0.821	1.628	0.1148
324.500	30816.64	0.2248	0.4291	0.8296	1.633	0.116
325.000	30769.23	0.2265	0.433	0.8407	1.641	0.1172
325.500	30721.97	0.2279	0.437	0.8508	1.666	0.1185
326.000	30674.85	0.2296	0.442	0.8607	1.7	0.1197
326.500	30627.87	0.2317	0.4477	0.8727	1.725	0.1204
327.000	30581.04	0.2344	0.4527	0.8833	1.753	0.1213
327.500	30534.35	0.2374	0.4564	0.8907	1.78	0.1226
328.000	30487.80	0.2386	0.4602	0.8974	1.771	0.1234
328.500	30441.40	0.2394	0.4648	0.9047	1.756	0.1239
329.000	30395.14	0.2421	0.4697	0.9125	1.784	0.1252
329.500	30349.01	0.2443	0.4733	0.9207	1.82	0.1265
330.000	30303.03	0.2444	0.4752	0.9287	1.827	0.1273
330.500	30257.19	0.2451	0.4782	0.9341	1.842	0.1281
331.000	30211.48	0.2465	0.4818	0.9397	1.86	0.1289
331.500	30165.91	0.2473	0.4837	0.9501	1.844	0.1288
332.000	30120.48	0.2481	0.4856	0.9569	1.839	0.1285
332.500	30075.19	0.2495	0.4892	0.9545	1.874	0.1289
333.000	30030.03	0.2506	0.4923	0.9567	1.885	0.1303
333.500	29985.01	0.2512	0.4938	0.9638	1.864	0.1317
334.000	29940.12	0.2519	0.4944	0.9633	1.874	0.1315
334.500	29895.37	0.2525	0.4951	0.9617	1.901	0.1314
335.000	29850.75	0.2528	0.4962	0.9672	1.911	0.1329
335.500	29806.26	0.2527	0.4961	0.9685	1.909	0.1336
336.000	29761.90	0.2526	0.4954	0.9633	1.904	0.1326
336.500	29717.68	0.2526	0.4972	0.9629	1.903	0.1317
337.000	29673.59	0.2527	0.4986	0.9674	1.896	0.1315
337.500	29629.63	0.2524	0.4959	0.9704	1.874	0.1316
338.000	29585.80	0.2519	0.4928	0.9681	1.85	0.1321
338.500	29542.10	0.2513	0.4923	0.9613	1.843	0.1328
339.000	29498.53	0.2506	0.4932	0.9565	1.867	0.1321
339.500	29455.08	0.2502	0.4928	0.9545	1.889	0.1311
340.000	29411.76	0.2501	0.4886	0.9525	1.86	0.1312
340.500	29368.58	0.2492	0.4848	0.9481	1.835	0.1316
341.000	29325.51	0.2475	0.4839	0.9417	1.847	0.1315
341.500	29282.58	0.2467	0.4826	0.9376	1.861	0.1308
342.000	29239.77	0.2463	0.4799	0.9354	1.855	0.1301
342.500	29197.08	0.2445	0.4768	0.931	1.832	0.1295
343.000	29154.52	0.2427	0.4732	0.9254	1.814	0.1291
343.500	29112.08	0.242	0.4691	0.9201	1.814	0.1288
344.000	29069.77	0.2405	0.4657	0.914	1.809	0.1277
344.500	29027.58	0.2379	0.4629	0.9066	1.788	0.1261
345.000	28985.51	0.2359	0.4595	0.8988	1.759	0.1254
345.500	28943.56	0.2349	0.456	0.8913	1.742	0.1254
346.000	28901.73	0.2348	0.4526	0.8844	1.741	0.1254
346.500	28860.03	0.2334	0.4484	0.8763	1.72	0.1244
347.000	28818.44	0.2307	0.4435	0.8668	1.685	0.1229
347.500	28776.98	0.2287	0.4396	0.8576	1.687	0.1223
348.000	28735.63	0.2274	0.4352	0.8486	1.698	0.1221
348.500	28694.40	0.2255	0.4287	0.839	1.675	0.1211
349.000	28653.30	0.2234	0.4239	0.8291	1.644	0.1195
349.500	28612.30	0.2214	0.4216	0.8197	1.623	0.1183
350.000	28571.43	0.219	0.4164	0.812	1.597	0.1184
350.500	28530.67	0.2164	0.4102	0.8057	1.579	0.1176
351.000	28490.03	0.214	0.4087	0.8	1.585	0.1142
351.500	28449.50	0.2115	0.4058	0.7904	1.577	0.1136
352.000	28409.09	0.2091	0.3984	0.7761	1.546	0.1162
352.500	28368.79	0.2084	0.3906	0.7621	1.519	0.1153
353.000	28328.61	0.2079	0.3838	0.75	1.499	0.1113
353.500	28288.54	0.2043	0.3787	0.741	1.479	0.1095
354.000	28248.59	0.2003	0.3747	0.7315	1.456	0.1096
354.500	28208.74	0.1984	0.3703	0.7196	1.431	0.1092
355.000	28169.01	0.1968	0.3649	0.7109	1.415	0.1082
355.500	28129.40	0.1946	0.3586	0.7033	1.404	0.1068
356.000	28089.89	0.1919	0.3525	0.6893	1.379	0.1054
356.500	28050.49	0.1894	0.3472	0.6747	1.351	0.1045
357.000	28011.20	0.1873	0.3424	0.6653	1.33	0.1039
357.500	27972.03	0.1853	0.337	0.6571	1.31	0.1027
358.000	27932.96	0.1829	0.3305	0.6473	1.288	0.1008
358.500	27894.00	0.1803	0.3242	0.6357	1.267	0.0995
359.000	27855.15	0.1778	0.3186	0.6234	1.246	0.09892
359.500	27816.41	0.1755	0.3134	0.6116	1.224	0.09846
360.000	27777.78	0.173	0.3078	0.6005	1.203	0.09759
360.500	27739.25	0.1703	0.3017	0.5897	1.183	0.09626
361.000	27700.83	0.168	0.296	0.5786	1.161	0.09491
361.500	27662.52	0.1659	0.2908	0.5668	1.137	0.09373
362.000	27624.31	0.1638	0.2855	0.5549	1.114	0.09272
362.500	27586.21	0.1614	0.2805	0.5433	1.094	0.09198
363.000	27548.21	0.1589	0.2756	0.5324	1.073	0.09124
363.500	27510.32	0.156	0.2694	0.5216	1.049	0.08967
364.000	27472.53	0.1532	0.2629	0.5114	1.026	0.08782
364.500	27434.84	0.1513	0.2578	0.5021	1.009	0.08693
365.000	27397.26	0.1496	0.2532	0.492	0.991	0.08629
365.500	27359.78	0.1476	0.248	0.4804	0.9676	0.08526
366.000	27322.40	0.1456	0.2429	0.4692	0.945	0.08437
366.500	27285.13	0.1435	0.2378	0.4592	0.9254	0.08363
367.000	27247.96	0.1412	0.2323	0.4496	0.9073	0.0826
367.500	27210.88	0.1387	0.2267	0.4396	0.8868	0.08133
368.000	27173.91	0.1364	0.2216	0.4291	0.8634	0.08015
368.500	27137.04	0.1346	0.2171	0.4198	0.8434	0.07941
369.000	27100.27	0.1328	0.2129	0.4113	0.8276	0.07899
369.500	27063.60	0.1305	0.208	0.4017	0.8115	0.07828
370.000	27027.03	0.1281	0.2028	0.3914	0.7923	0.07729
370.500	26990.55	0.1266	0.1978	0.3819	0.7704	0.07634
371.000	26954.18	0.125	0.1935	0.373	0.7515	0.07578
371.500	26917.90	0.1229	0.1896	0.3643	0.7359	0.07531
372.000	26881.72	0.1208	0.1852	0.3556	0.7188	0.07408
372.500	26845.64	0.119	0.1805	0.3473	0.701	0.07265
373.000	26809.65	0.1172	0.1763	0.3395	0.6848	0.07192
373.500	26773.76	0.1152	0.1722	0.3313	0.668	0.07131
374.000	26737.97	0.1131	0.1679	0.3226	0.6503	0.07047
374.500	26702.27	0.1117	0.1639	0.3148	0.6341	0.0698
375.000	26666.67	0.1105	0.1603	0.307	0.6186	0.06914
375.500	26631.16	0.1086	0.157	0.2982	0.6021	0.06814
376.000	26595.74	0.1066	0.1532	0.2907	0.5872	0.0674
376.500	26560.42	0.1052	0.1488	0.2852	0.5742	0.06706
377.000	26525.20	0.1037	0.1446	0.2786	0.5595	0.0663
377.500	26490.07	0.1022	0.1412	0.2708	0.5441	0.06539
378.000	26455.03	0.1011	0.1386	0.2631	0.5312	0.06507
378.500	26420.08	0.09943	0.1352	0.2556	0.5181	0.0643
379.000	26385.22	0.09713	0.1302	0.2484	0.5034	0.06275
379.500	26350.46	0.09573	0.1265	0.2424	0.4902	0.06241
380.000	26315.79	0.0951	0.1242	0.2369	0.4786	0.06307
380.500	26281.21	0.09387	0.1217	0.2301	0.4664	0.06284
381.000	26246.72	0.09236	0.1186	0.2233	0.4544	0.062
381.500	26212.32	0.09125	0.1152	0.2178	0.4435	0.0613
382.000	26178.01	0.09036	0.1118	0.2124	0.4316	0.06066
382.500	26143.79	0.08915	0.1088	0.2066	0.4191	0.06011
383.000	26109.66	0.08712	0.1062	0.201	0.4079	0.05982
383.500	26075.62	0.08543	0.1034	0.1955	0.397	0.05936
384.000	26041.67	0.08504	0.1004	0.1901	0.3854	0.0585
384.500	26007.80	0.08447	0.09823	0.1853	0.3754	0.05821
385.000	25974.03	0.08324	0.09667	0.1807	0.3669	0.0584
385.500	25940.34	0.08229	0.09381	0.1756	0.3568	0.05776
386.000	25906.74	0.08129	0.09031	0.1702	0.3462	0.05684
386.500	25873.22	0.07981	0.08763	0.165	0.3369	0.05665
387.000	25839.79	0.07893	0.08576	0.1608	0.3281	0.05665
387.500	25806.45	0.07864	0.08414	0.1572	0.3191	0.05637
388.000	25773.20	0.07737	0.08192	0.1525	0.3106	0.05581
388.500	25740.03	0.0757	0.07943	0.1476	0.3022	0.05546
389.000	25706.94	0.07502	0.07744	0.1442	0.2936	0.0557
389.500	25673.94	0.07471	0.0758	0.141	0.2855	0.0554
390.000	25641.03	0.07405	0.07409	0.1368	0.2782	0.0542
390.500	25608.19	0.0729	0.07195	0.1325	0.2713	0.05348
391.000	25575.45	0.07164	0.06944	0.1286	0.2643	0.05344
391.500	25542.78	0.07079	0.06691	0.1254	0.2569	0.05347
392.000	25510.20	0.07031	0.06495	0.122	0.2496	0.05343
392.500	25477.71	0.07	0.06373	0.1181	0.2431	0.05329
393.000	25445.29	0.06966	0.06266	0.1149	0.2374	0.05298
393.500	25412.96	0.06903	0.06138	0.1124	0.2318	0.05272
394.000	25380.71	0.06794	0.05978	0.1096	0.2252	0.05275
394.500	25348.54	0.06669	0.05788	0.1064	0.2184	0.05241
395.000	25316.46	0.06581	0.05597	0.1031	0.2123	0.05157
395.500	25284.45	0.06601	0.05486	0.1006	0.2074	0.05163
396.000	25252.53	0.06635	0.05403	0.09843	0.203	0.05216
396.500	25220.68	0.06498	0.05212	0.09554	0.1977	0.05141
397.000	25188.92	0.06363	0.05026	0.09298	0.1923	0.05055
397.500	25157.23	0.0638	0.04956	0.09141	0.1872	0.05081
398.000	25125.63	0.06347	0.04897	0.08887	0.1824	0.05108
398.500	25094.10	0.06239	0.04799	0.08564	0.1778	0.05101
399.000	25062.66	0.06209	0.04693	0.08395	0.1739	0.05118
399.500	25031.29	0.06214	0.04571	0.08289	0.1705	0.05129
400.000	25000.00	0.06167	0.04434	0.081	0.1669	0.05103
400.500	24968.79	0.06108	0.04361	0.07894	0.1631	0.05096
401.000	24937.66	0.06062	0.04322	0.07688	0.1591	0.0511
401.500	24906.60	0.06015	0.04168	0.07423	0.1551	0.05081
402.000	24875.62	0.0596	0.03965	0.07171	0.1512	0.05028
402.500	24844.72	0.05903	0.03844	0.07024	0.1474	0.05006
403.000	24813.90	0.05876	0.03813	0.06921	0.1444	0.05039
403.500	24783.15	0.05868	0.03817	0.06794	0.1419	0.0508
404.000	24752.48	0.05815	0.03767	0.06617	0.1386	0.05016
404.500	24721.88	0.05769	0.03698	0.06445	0.1351	0.04945
405.000	24691.36	0.05795	0.03662	0.06331	0.1323	0.04997
405.500	24660.91	0.05785	0.03532	0.06198	0.129	0.05001
406.000	24630.54	0.05716	0.03339	0.06023	0.1252	0.04909
406.500	24600.25	0.0572	0.03348	0.05893	0.123	0.04903
407.000	24570.02	0.05758	0.03451	0.05817	0.1217	0.04963
407.500	24539.88	0.05716	0.03378	0.05748	0.1193	0.04973
408.000	24509.80	0.05638	0.03215	0.05608	0.1165	0.04971
408.500	24479.80	0.05576	0.03089	0.05398	0.114	0.04991
409.000	24449.88	0.05517	0.03012	0.05255	0.1117	0.04985
409.500	24420.02	0.05468	0.02965	0.05175	0.1095	0.0496
410.000	24390.24	0.05449	0.0292	0.0507	0.1074	0.04959
410.500	24360.54	0.05439	0.02872	0.04963	0.1055	0.04993
411.000	24330.90	0.05418	0.02814	0.04867	0.1036	0.05034
411.500	24301.34	0.05387	0.02726	0.04726	0.1014	0.05019
412.000	24271.84	0.05372	0.0265	0.04579	0.09909	0.0496
412.500	24242.42	0.05399	0.02647	0.04521	0.09748	0.04918
413.000	24213.08	0.05395	0.02645	0.04504	0.09617	0.04884
413.500	24183.80	0.05333	0.0259	0.04468	0.09472	0.04863
414.000	24154.59	0.05334	0.02543	0.04409	0.09344	0.04948
414.500	24125.45	0.05378	0.02509	0.04335	0.09218	0.05067
415.000	24096.39	0.05324	0.02446	0.04255	0.09049	0.05021
415.500	24067.39	0.05239	0.0239	0.04177	0.0889	0.04913
416.000	24038.46	0.05221	0.02383	0.04113	0.08792	0.04894
416.500	24009.60	0.05245	0.02406	0.04078	0.08725	0.04956
417.000	23980.82	0.05268	0.02422	0.04071	0.0866	0.05026
417.500	23952.10	0.05261	0.02393	0.04071	0.08583	0.05015
418.000	23923.44	0.05253	0.02355	0.0404	0.08495	0.04979
418.500	23894.86	0.0527	0.02342	0.03961	0.084	0.04997
419.000	23866.35	0.05257	0.02305	0.03879	0.0829	0.05037
419.500	23837.90	0.05199	0.02239	0.03809	0.08168	0.05053
420.000	23809.52	0.05147	0.02199	0.03722	0.08041	0.05011
420.500	23781.21	0.05117	0.02177	0.03643	0.07899	0.04954
421.000	23752.97	0.05105	0.02146	0.03603	0.07745	0.04934
421.500	23724.79	0.05112	0.02117	0.03579	0.07651	0.04949
422.000	23696.68	0.05137	0.02096	0.03543	0.07605	0.04978
422.500	23668.64	0.05174	0.02076	0.03479	0.07501	0.04986
423.000	23640.66	0.05159	0.02054	0.03419	0.07376	0.04969
423.500	23612.75	0.05059	0.02034	0.03398	0.07307	0.04949
424.000	23584.91	0.05017	0.02035	0.03383	0.07257	0.0498
424.500	23557.13	0.0507	0.02036	0.03344	0.0718	0.05054
425.000	23529.41	0.05054	0.01954	0.03275	0.0706	0.05066
425.500	23501.76	0.04988	0.01855	0.03207	0.06961	0.05052
426.000	23474.18	0.04982	0.01844	0.03166	0.06937	0.05099
426.500	23446.66	0.04986	0.0182	0.03104	0.06853	0.05118
427.000	23419.20	0.04968	0.01748	0.03027	0.06681	0.05066
427.500	23391.81	0.04983	0.01748	0.03034	0.06595	0.0502
428.000	23364.49	0.05009	0.01793	0.03074	0.06603	0.0503
428.500	23337.22	0.04989	0.0178	0.03032	0.06614	0.05103
429.000	23310.02	0.04941	0.01726	0.02951	0.06557	0.05136
429.500	23282.89	0.04903	0.01683	0.029	0.06435	0.05094
430.000	23255.81	0.04892	0.01688	0.02896	0.0636	0.05112
430.500	23228.80	0.04898	0.01717	0.02897	0.06335	0.0517
431.000	23201.86	0.04897	0.01713	0.02844	0.06292	0.05158
431.500	23174.97	0.04899	0.01668	0.02792	0.06231	0.05132
432.000	23148.15	0.04909	0.01607	0.02779	0.06166	0.05149
432.500	23121.39	0.04905	0.01576	0.02751	0.06108	0.05176
433.000	23094.69	0.04877	0.01577	0.02697	0.0604	0.05176
433.500	23068.05	0.04831	0.01574	0.02649	0.05938	0.05132
434.000	23041.47	0.04814	0.01572	0.02631	0.05832	0.05097
434.500	23014.96	0.04842	0.01571	0.02638	0.05754	0.0511
435.000	22988.51	0.04852	0.01542	0.02608	0.05715	0.05155
435.500	22962.11	0.04822	0.01487	0.02538	0.05682	0.05188
436.000	22935.78	0.04776	0.0144	0.02476	0.05597	0.05167
436.500	22909.51	0.04735	0.01409	0.02421	0.05487	0.05141
437.000	22883.30	0.04714	0.01386	0.02363	0.05396	0.05153
437.500	22857.14	0.04722	0.01372	0.02326	0.05326	0.05156
438.000	22831.05	0.04736	0.0135	0.02307	0.05255	0.05136
438.500	22805.02	0.04714	0.01305	0.02276	0.05157	0.05122
439.000	22779.04	0.04701	0.01289	0.02238	0.0506	0.05124
439.500	22753.13	0.04733	0.01333	0.02204	0.04988	0.05138
440.000	22727.27	0.04722	0.01336	0.02164	0.04901	0.05157
440.500	22701.48	0.04663	0.01276	0.02105	0.04778	0.05146
441.000	22675.74	0.04642	0.01232	0.02021	0.04639	0.05067
441.500	22650.06	0.04645	0.01224	0.01974	0.04528	0.05002
442.000	22624.43	0.0463	0.01232	0.01994	0.04469	0.05024
442.500	22598.87	0.04591	0.01204	0.01976	0.04433	0.05068
443.000	22573.36	0.0456	0.01146	0.01895	0.0439	0.05093
443.500	22547.91	0.04593	0.01135	0.01851	0.04315	0.05112
444.000	22522.52	0.04642	0.01155	0.01854	0.04237	0.05121
444.500	22497.19	0.04635	0.01152	0.0186	0.04183	0.05111
445.000	22471.91	0.046	0.01134	0.01821	0.04119	0.05094
445.500	22446.69	0.04573	0.01117	0.01753	0.04047	0.05084
446.000	22421.52	0.04573	0.01117	0.01742	0.04017	0.05103
446.500	22396.42	0.04577	0.01115	0.01762	0.04017	0.05137
447.000	22371.36	0.04555	0.01088	0.01745	0.04004	0.05162
447.500	22346.37	0.04554	0.01046	0.01703	0.03962	0.05181
448.000	22321.43	0.04576	0.01006	0.01656	0.03895	0.05187
448.500	22296.54	0.04549	0.009916	0.01614	0.0383	0.05168
449.000	22271.71	0.04517	0.009986	0.0161	0.03777	0.05148
449.500	22246.94	0.04548	0.01011	0.01663	0.03738	0.05161
450.000	22222.22	0.0456	0.01013	0.01678	0.03732	0.05181
450.500	22197.56	0.04512	0.0099	0.0162	0.03737	0.05182
451.000	22172.95	0.04476	0.009345	0.0157	0.03687	0.0516
451.500	22148.39	0.04485	0.008984	0.01561	0.03621	0.05144
452.000	22123.89	0.04528	0.009365	0.01581	0.03615	0.05167
452.500	22099.45	0.04548	0.009701	0.01593	0.03637	0.0521
453.000	22075.06	0.04524	0.009539	0.01584	0.03641	0.05239
453.500	22050.72	0.04508	0.009428	0.01572	0.03608	0.05224
454.000	22026.43	0.045	0.009385	0.01558	0.03562	0.05185
454.500	22002.20	0.04474	0.009161	0.01533	0.03543	0.05165
455.000	21978.02	0.04463	0.009149	0.01527	0.03547	0.0517
455.500	21953.90	0.0448	0.009402	0.01546	0.03555	0.0519
456.000	21929.82	0.04481	0.009209	0.01541	0.03546	0.052
456.500	21905.81	0.04467	0.008823	0.01509	0.0351	0.05186
457.000	21881.84	0.04469	0.008996	0.01483	0.03453	0.05147
457.500	21857.92	0.04487	0.00939	0.01482	0.03422	0.05113
458.000	21834.06	0.04514	0.009648	0.01515	0.03446	0.05117
458.500	21810.25	0.04547	0.009884	0.01573	0.03499	0.05184
459.000	21786.49	0.04557	0.01007	0.01626	0.03554	0.05269
459.500	21762.79	0.04516	0.01004	0.01628	0.03586	0.05299
460.000	21739.13	0.04495	0.0098	0.01595	0.03606	0.05325
460.500	21715.53	0.04534	0.009507	0.01565	0.03621	0.05383
461.000	21691.97	0.04546	0.009464	0.01573	0.03614	0.05397
461.500	21668.47	0.04516	0.009565	0.01589	0.03592	0.05366
462.000	21645.02	0.04495	0.009478	0.0155	0.03575	0.05348
462.500	21621.62	0.04509	0.009469	0.01517	0.03533	0.05303
463.000	21598.27	0.04544	0.009671	0.01536	0.03471	0.05225
463.500	21574.97	0.04541	0.009677	0.01561	0.03461	0.05208
464.000	21551.72	0.04507	0.009485	0.01572	0.03495	0.05249
464.500	21528.53	0.045	0.009431	0.01571	0.03507	0.0528
465.000	21505.38	0.04519	0.009662	0.01584	0.03522	0.05317
465.500	21482.28	0.04549	0.0101	0.01622	0.03569	0.05378
466.000	21459.23	0.0459	0.01034	0.0165	0.03617	0.0542
466.500	21436.23	0.04608	0.01021	0.01657	0.03627	0.05438
467.000	21413.28	0.04559	0.009847	0.01654	0.03577	0.05457
467.500	21390.37	0.04524	0.009814	0.0163	0.03539	0.05467
468.000	21367.52	0.04561	0.01033	0.01597	0.03573	0.05464
468.500	21344.72	0.0459	0.01053	0.01622	0.03628	0.05491
469.000	21321.96	0.04577	0.01021	0.01678	0.03666	0.05541
469.500	21299.25	0.0455	0.00982	0.01659	0.0368	0.05562
470.000	21276.60	0.04525	0.009423	0.016	0.03653	0.05557
470.500	21253.99	0.04516	0.009055	0.01575	0.03593	0.0555
471.000	21231.42	0.04536	0.008974	0.016	0.03553	0.05552
471.500	21208.91	0.04565	0.009199	0.01646	0.03546	0.05561
472.000	21186.44	0.04556	0.009504	0.01664	0.03544	0.05564
472.500	21164.02	0.04523	0.009667	0.01643	0.03547	0.05547
473.000	21141.65	0.04503	0.009616	0.01607	0.03565	0.05516
473.500	21119.32	0.04525	0.009599	0.01609	0.03589	0.05522
474.000	21097.05	0.04563	0.009617	0.01636	0.03609	0.05565
474.500	21074.82	0.04549	0.009455	0.0162	0.03614	0.05598
475.000	21052.63	0.0452	0.00945	0.01612	0.03621	0.05626
475.500	21030.49	0.04526	0.009828	0.01661	0.0364	0.05658
476.000	21008.40	0.04542	0.00996	0.01679	0.03644	0.05657
476.500	20986.36	0.04542	0.009657	0.01642	0.0363	0.05627
477.000	20964.36	0.04513	0.009279	0.01608	0.03626	0.05608
477.500	20942.41	0.04484	0.008985	0.01595	0.0362	0.05587
478.000	20920.50	0.04488	0.008858	0.01601	0.03602	0.05549
478.500	20898.64	0.045	0.009022	0.01622	0.03603	0.05537
479.000	20876.83	0.04514	0.009392	0.01652	0.03637	0.05567
479.500	20855.06	0.04544	0.009662	0.01679	0.03682	0.05612
480.000	20833.33	0.04558	0.009615	0.01693	0.03703	0.05625
480.500	20811.65	0.04531	0.009298	0.0169	0.03685	0.05591
481.000	20790.02	0.0452	0.009296	0.01694	0.03689	0.05593
481.500	20768.43	0.04539	0.009638	0.01709	0.03733	0.05638
482.000	20746.89	0.04542	0.0097	0.01723	0.03769	0.05645
482.500	20725.39	0.04527	0.00952	0.01715	0.03785	0.05621
483.000	20703.93	0.04514	0.009379	0.01679	0.03782	0.05596
483.500	20682.52	0.0451	0.009329	0.01658	0.03757	0.05542
484.000	20661.16	0.04533	0.009479	0.01678	0.03736	0.05492
484.500	20639.83	0.04595	0.009918	0.01727	0.03751	0.05525
485.000	20618.56	0.04587	0.009679	0.01665	0.03661	0.05447
485.500	20597.32	0.04453	0.008462	0.01462	0.0342	0.05156
486.000	20576.13	0.04378	0.008382	0.01433	0.03334	0.05006
486.500	20554.98	0.04408	0.009598	0.01608	0.03477	0.05095
487.000	20533.88	0.04468	0.01045	0.01761	0.03724	0.05303
487.500	20512.82	0.0452	0.0107	0.01837	0.03953	0.05532
488.000	20491.80	0.04542	0.01072	0.01857	0.0402	0.05648
488.500	20470.83	0.04554	0.01051	0.01864	0.04024	0.05669
489.000	20449.90	0.0457	0.01017	0.01871	0.04044	0.05648
489.500	20429.01	0.04583	0.009999	0.01855	0.04047	0.05616
490.000	20408.16	0.04582	0.01009	0.01846	0.04055	0.05597
490.500	20387.36	0.04564	0.01034	0.01879	0.04098	0.05605
491.000	20366.60	0.04544	0.01041	0.01916	0.04137	0.05621
491.500	20345.88	0.0454	0.01024	0.01929	0.04152	0.05633
492.000	20325.20	0.04563	0.01016	0.01918	0.04161	0.05637
492.500	20304.57	0.04593	0.01043	0.0193	0.04178	0.05634
493.000	20283.98	0.04603	0.01108	0.01997	0.04215	0.0563
493.500	20263.42	0.04604	0.01157	0.02056	0.04288	0.05641
494.000	20242.91	0.04606	0.01169	0.02077	0.04383	0.05675
494.500	20222.45	0.04616	0.0116	0.02089	0.04447	0.05727
495.000	20202.02	0.04613	0.01144	0.02095	0.04477	0.05758
495.500	20181.63	0.04585	0.01132	0.02088	0.04493	0.05737
496.000	20161.29	0.04569	0.01132	0.02061	0.04494	0.05718
496.500	20140.99	0.04592	0.01148	0.02056	0.04508	0.05736
497.000	20120.72	0.04653	0.01181	0.02148	0.04591	0.05777
497.500	20100.50	0.04695	0.01207	0.02231	0.04675	0.05803
498.000	20080.32	0.04666	0.01204	0.02188	0.0468	0.05783
498.500	20060.18	0.04612	0.01191	0.02152	0.04678	0.0574
499.000	20040.08	0.04589	0.01187	0.02192	0.04727	0.05714
499.500	20020.02	0.04629	0.01197	0.02255	0.04821	0.05751
500.000	20000.00	0.0468	0.01219	0.02299	0.04898	0.05801
500.500	19980.02	0.04676	0.01247	0.0231	0.04909	0.05793
501.000	19960.08	0.04648	0.01257	0.02319	0.04926	0.05761
501.500	19940.18	0.04635	0.01252	0.02345	0.04988	0.05746
502.000	19920.32	0.04654	0.01264	0.02382	0.05065	0.05767
502.500	19900.50	0.04667	0.01277	0.02414	0.05127	0.05799
503.000	19880.72	0.04639	0.01266	0.02432	0.05163	0.05813
503.500	19860.97	0.04636	0.01263	0.02459	0.05213	0.0583
504.000	19841.27	0.04677	0.01291	0.025	0.05294	0.05853
504.500	19821.61	0.04707	0.01345	0.02522	0.05374	0.0585
505.000	19801.98	0.04705	0.01375	0.02536	0.05431	0.05834
505.500	19782.39	0.04682	0.01348	0.02566	0.05463	0.05833
506.000	19762.85	0.04692	0.01359	0.02612	0.05518	0.05838
506.500	19743.34	0.04735	0.01418	0.02659	0.05608	0.05843
507.000	19723.87	0.04744	0.01419	0.02677	0.05696	0.05853
507.500	19704.43	0.04736	0.01395	0.02693	0.05758	0.05865
508.000	19685.04	0.04753	0.01421	0.02744	0.05795	0.05872
508.500	19665.68	0.04762	0.01479	0.0281	0.05873	0.05887
509.000	19646.37	0.04754	0.01532	0.02863	0.05995	0.05905
509.500	19627.09	0.04759	0.01545	0.02885	0.06082	0.05906
510.000	19607.84	0.04782	0.01541	0.02909	0.06149	0.05907
510.500	19588.64	0.04807	0.01555	0.02965	0.06236	0.05927
511.000	19569.47	0.04806	0.01574	0.03006	0.06308	0.05932
511.500	19550.34	0.04789	0.01586	0.03027	0.06366	0.0592
512.000	19531.25	0.04804	0.01598	0.03076	0.0646	0.05931
512.500	19512.20	0.04831	0.01626	0.03148	0.06574	0.05961
513.000	19493.18	0.04834	0.01675	0.03215	0.06672	0.05981
513.500	19474.20	0.04833	0.01707	0.03251	0.06762	0.05977
514.000	19455.25	0.04838	0.01714	0.03267	0.06852	0.05961
514.500	19436.35	0.04843	0.01728	0.03304	0.0694	0.05962
515.000	19417.48	0.04845	0.01745	0.03366	0.07027	0.05978
515.500	19398.64	0.04845	0.01756	0.03434	0.07122	0.05994
516.000	19379.84	0.04855	0.01777	0.03487	0.07237	0.06002
516.500	19361.08	0.0488	0.01815	0.03524	0.07363	0.06008
517.000	19342.36	0.04912	0.01857	0.03577	0.07471	0.06026
517.500	19323.67	0.04927	0.01896	0.03643	0.07576	0.06044
518.000	19305.02	0.04917	0.01931	0.03714	0.07702	0.06046
518.500	19286.40	0.04934	0.01965	0.03792	0.07843	0.06051
519.000	19267.82	0.04979	0.02001	0.0387	0.07988	0.0606
519.500	19249.28	0.04993	0.02044	0.03933	0.08125	0.06057
520.000	19230.77	0.04987	0.02077	0.03991	0.08245	0.06063
520.500	19212.30	0.04995	0.02091	0.04062	0.08355	0.06095
521.000	19193.86	0.05004	0.02112	0.04132	0.08496	0.06114
521.500	19175.46	0.05007	0.02149	0.04192	0.08664	0.06114
522.000	19157.09	0.05009	0.02186	0.04244	0.08808	0.06125
522.500	19138.76	0.05015	0.02209	0.04299	0.08919	0.06125
523.000	19120.46	0.0503	0.0222	0.04369	0.09024	0.06099
523.500	19102.20	0.05056	0.02268	0.04463	0.09198	0.061
524.000	19083.97	0.05088	0.02345	0.04565	0.09417	0.06139
524.500	19065.78	0.05111	0.02387	0.04636	0.09569	0.06166
525.000	19047.62	0.05116	0.02391	0.04692	0.09694	0.06164
525.500	19029.50	0.05115	0.02396	0.0476	0.09866	0.06142
526.000	19011.41	0.05143	0.02466	0.04859	0.1006	0.06149
526.500	18993.35	0.0519	0.02572	0.04974	0.1024	0.06179
527.000	18975.33	0.052	0.02612	0.05068	0.104	0.06179
527.500	18957.35	0.05204	0.02633	0.05156	0.1058	0.06189
528.000	18939.39	0.05234	0.02698	0.0526	0.1079	0.06246
528.500	18921.48	0.05248	0.02745	0.05359	0.1098	0.06266
529.000	18903.59	0.05246	0.02771	0.05446	0.1116	0.06243
529.500	18885.74	0.05274	0.02829	0.05527	0.1135	0.06246
530.000	18867.92	0.053	0.02887	0.0562	0.1155	0.06262
530.500	18850.14	0.05299	0.02914	0.0573	0.1174	0.06262
531.000	18832.39	0.05329	0.02954	0.0584	0.1195	0.06272
531.500	18814.68	0.05383	0.03019	0.05943	0.1218	0.06296
532.000	18796.99	0.05392	0.03081	0.06042	0.1238	0.06309
532.500	18779.34	0.05377	0.03135	0.06144	0.1258	0.06297
533.000	18761.73	0.0538	0.03184	0.06251	0.1279	0.06269
533.500	18744.14	0.05417	0.03235	0.06351	0.1302	0.06263
534.000	18726.59	0.05459	0.03289	0.06461	0.1325	0.06288
534.500	18709.07	0.05461	0.03347	0.06611	0.1348	0.0632
535.000	18691.59	0.0547	0.03412	0.06754	0.1373	0.06352
535.500	18674.14	0.05526	0.03481	0.06854	0.14	0.06373
536.000	18656.72	0.05572	0.03553	0.06968	0.1426	0.06366
536.500	18639.33	0.0559	0.03625	0.07109	0.145	0.0635
537.000	18621.97	0.05603	0.0369	0.07246	0.1477	0.06366
537.500	18604.65	0.05623	0.03754	0.07386	0.1506	0.06394
538.000	18587.36	0.05652	0.03824	0.07539	0.1535	0.06407
538.500	18570.10	0.05688	0.03893	0.07688	0.1562	0.06413
539.000	18552.88	0.05724	0.03965	0.0783	0.159	0.06422
539.500	18535.68	0.05748	0.04042	0.07972	0.162	0.06442
540.000	18518.52	0.0576	0.0412	0.0812	0.1652	0.06457
540.500	18501.39	0.05775	0.04194	0.08274	0.1685	0.06458
541.000	18484.29	0.05823	0.0427	0.08431	0.1718	0.06465
541.500	18467.22	0.05882	0.04355	0.08595	0.1752	0.06475
542.000	18450.18	0.05906	0.04453	0.08777	0.1782	0.06476
542.500	18433.18	0.05921	0.04555	0.08966	0.1814	0.0649
543.000	18416.21	0.05957	0.04645	0.09151	0.1852	0.06523
543.500	18399.26	0.05996	0.04706	0.09327	0.189	0.06542
544.000	18382.35	0.06032	0.04776	0.09511	0.1927	0.06553
544.500	18365.47	0.06067	0.0491	0.09726	0.1966	0.06589
545.000	18348.62	0.06106	0.0504	0.09933	0.2007	0.06632
545.500	18331.81	0.06151	0.05125	0.1012	0.2051	0.06663
546.000	18315.02	0.06198	0.05218	0.1033	0.2092	0.06673
546.500	18298.26	0.06248	0.05335	0.1055	0.2133	0.0668
547.000	18281.54	0.06307	0.05457	0.1078	0.2177	0.06702
547.500	18264.84	0.06358	0.05567	0.1099	0.222	0.0672
548.000	18248.18	0.06396	0.05668	0.112	0.2263	0.06727
548.500	18231.54	0.06442	0.05793	0.1145	0.2314	0.06756
549.000	18214.94	0.06494	0.05929	0.1172	0.2368	0.06799
549.500	18198.36	0.06542	0.06044	0.1198	0.2416	0.06826
550.000	18181.82	0.06575	0.0615	0.1221	0.246	0.06832
550.500	18165.30	0.06605	0.06266	0.1244	0.2507	0.06833
551.000	18148.82	0.06664	0.06398	0.1269	0.2564	0.06859
551.500	18132.37	0.06745	0.06546	0.1298	0.2624	0.06915
552.000	18115.94	0.06819	0.06705	0.1327	0.2679	0.06982
552.500	18099.55	0.06869	0.06851	0.1355	0.2733	0.07002
553.000	18083.18	0.06906	0.06983	0.1383	0.2789	0.06982
553.500	18066.85	0.06965	0.0713	0.1412	0.285	0.07012
554.000	18050.54	0.07033	0.07285	0.1444	0.2913	0.07056
554.500	18034.27	0.07082	0.07434	0.1477	0.2975	0.07049
555.000	18018.02	0.07143	0.07591	0.1511	0.304	0.0707
555.500	18001.80	0.07226	0.07766	0.1544	0.3108	0.07143
556.000	17985.61	0.07306	0.07956	0.1579	0.3176	0.0719
556.500	17969.45	0.07386	0.08134	0.1615	0.3244	0.07218
557.000	17953.32	0.07473	0.08285	0.1648	0.3313	0.07261
557.500	17937.22	0.07523	0.0846	0.1685	0.3386	0.07303
558.000	17921.15	0.07563	0.08666	0.1724	0.3463	0.07335
558.500	17905.10	0.07687	0.08848	0.1761	0.3539	0.07362
559.000	17889.09	0.07822	0.09032	0.1799	0.3615	0.07408
559.500	17873.10	0.07871	0.09249	0.1841	0.3692	0.07476
560.000	17857.14	0.0791	0.09437	0.1879	0.3769	0.07491
560.500	17841.21	0.07995	0.09593	0.1913	0.3848	0.07472
561.000	17825.31	0.08121	0.09774	0.1952	0.3929	0.07537
561.500	17809.44	0.08242	0.09994	0.1997	0.4015	0.0762
562.000	17793.59	0.08315	0.1024	0.2045	0.4107	0.07636
562.500	17777.78	0.08344	0.1051	0.2096	0.4195	0.07667
563.000	17761.99	0.08383	0.1076	0.2143	0.4277	0.07737
563.500	17746.23	0.08501	0.1093	0.218	0.436	0.07787
564.000	17730.50	0.08644	0.1104	0.2212	0.4444	0.07792
564.500	17714.79	0.08727	0.1119	0.2249	0.4532	0.07756
565.000	17699.12	0.08694	0.1154	0.2308	0.4637	0.07735
565.500	17683.47	0.08643	0.1198	0.2376	0.4744	0.07817
566.000	17667.84	0.0875	0.1222	0.2422	0.4832	0.08026
566.500	17652.25	0.0893	0.1235	0.2458	0.4915	0.08111
567.000	17636.68	0.09104	0.1255	0.2502	0.5015	0.07993
567.500	17621.15	0.0928	0.1275	0.2551	0.5119	0.07959
568.000	17605.63	0.09425	0.1295	0.2598	0.5216	0.08029
568.500	17590.15	0.09494	0.1315	0.2642	0.5311	0.08019
569.000	17574.69	0.0952	0.134	0.2692	0.541	0.07962
569.500	17559.26	0.09553	0.1369	0.2747	0.5511	0.07944
570.000	17543.86	0.09622	0.1399	0.28	0.561	0.07998
570.500	17528.48	0.09726	0.1426	0.2848	0.5709	0.08092
571.000	17513.13	0.09851	0.1448	0.2894	0.5807	0.08164
571.500	17497.81	0.09984	0.147	0.2943	0.5904	0.0821
572.000	17482.52	0.101	0.1493	0.2994	0.5999	0.08242
572.500	17467.25	0.1018	0.1517	0.3042	0.6096	0.08269
573.000	17452.01	0.1023	0.1537	0.3083	0.6185	0.08262
573.500	17436.79	0.1031	0.155	0.3116	0.626	0.08196
574.000	17421.60	0.104	0.1566	0.3155	0.6341	0.08172
574.500	17406.44	0.105	0.1593	0.3209	0.6444	0.08246
575.000	17391.30	0.106	0.1627	0.3268	0.6552	0.08361
575.500	17376.19	0.1068	0.1662	0.3323	0.6648	0.08448
576.000	17361.11	0.1074	0.169	0.337	0.6733	0.08478
576.500	17346.05	0.108	0.1711	0.341	0.6817	0.08498
577.000	17331.02	0.1088	0.1725	0.3448	0.6906	0.08526
577.500	17316.02	0.1097	0.1739	0.3488	0.6987	0.08531
578.000	17301.04	0.1106	0.1754	0.3526	0.706	0.08524
578.500	17286.08	0.1116	0.1771	0.3559	0.7133	0.08525
579.000	17271.16	0.1122	0.1787	0.3595	0.7211	0.08495
579.500	17256.26	0.1124	0.1802	0.3636	0.729	0.08448
580.000	17241.38	0.1129	0.1824	0.3677	0.7373	0.08457
580.500	17226.53	0.1136	0.1847	0.3715	0.7453	0.0848
581.000	17211.70	0.1145	0.1864	0.375	0.7525	0.08456
581.500	17196.90	0.1147	0.188	0.3787	0.7603	0.0842
582.000	17182.13	0.1149	0.19	0.3831	0.769	0.0845
582.500	17167.38	0.1163	0.1928	0.3885	0.778	0.08635
583.000	17152.66	0.1183	0.1956	0.3938	0.7872	0.08847
583.500	17137.96	0.1195	0.1976	0.3978	0.796	0.08918
584.000	17123.29	0.1205	0.1999	0.4021	0.8049	0.08956
584.500	17108.64	0.1216	0.2026	0.4073	0.8144	0.09022
585.000	17094.02	0.1225	0.2049	0.4124	0.8244	0.09084
585.500	17079.42	0.1234	0.2071	0.4171	0.8344	0.09148
586.000	17064.85	0.1246	0.2097	0.4217	0.8441	0.09221
586.500	17050.30	0.1258	0.2123	0.4269	0.8534	0.09276
587.000	17035.78	0.1269	0.215	0.4324	0.863	0.09307
587.500	17021.28	0.1278	0.2176	0.4372	0.8733	0.09326
588.000	17006.80	0.1287	0.2201	0.442	0.8841	0.09325
588.500	16992.35	0.1296	0.2226	0.4475	0.895	0.09335
589.000	16977.93	0.1308	0.2257	0.4536	0.9054	0.09466
589.500	16963.53	0.1324	0.2291	0.4601	0.9164	0.09679
590.000	16949.15	0.1339	0.2322	0.4661	0.9291	0.09819
590.500	16934.80	0.1355	0.2352	0.4719	0.9416	0.09896
591.000	16920.47	0.1371	0.2383	0.4781	0.9529	0.09961
591.500	16906.17	0.1387	0.2417	0.4848	0.9647	0.1004
592.000	16891.89	0.14	0.2452	0.4918	0.9783	0.1012
592.500	16877.64	0.1414	0.2486	0.4985	0.9935	0.1017
593.000	16863.41	0.1427	0.252	0.5051	1.007	0.1021
593.500	16849.20	0.1441	0.2555	0.5118	1.019	0.1025
594.000	16835.02	0.1455	0.2587	0.5186	1.032	0.1029
594.500	16820.86	0.1467	0.262	0.5254	1.046	0.1032
595.000	16806.72	0.1479	0.2656	0.5324	1.06	0.1036
595.500	16792.61	0.1494	0.2693	0.54	1.075	0.1044
596.000	16778.52	0.1512	0.2731	0.5481	1.091	0.1056
596.500	16764.46	0.153	0.2771	0.5557	1.107	0.1066
597.000	16750.42	0.1548	0.281	0.5632	1.122	0.1074
597.500	16736.40	0.1565	0.2852	0.5715	1.137	0.1081
598.000	16722.41	0.1582	0.2892	0.5798	1.153	0.1091
598.500	16708.44	0.16	0.2931	0.5879	1.171	0.1105
599.000	16694.49	0.1618	0.2974	0.5967	1.188	0.1117
599.500	16680.57	0.1636	0.3016	0.6053	1.204	0.1127
600.000	16666.67	0.1655	0.3057	0.613	1.222	0.1133
600.500	16652.79	0.1673	0.31	0.6218	1.239	0.1139
601.000	16638.94	0.169	0.3144	0.6313	1.254	0.1146
601.500	16625.10	0.1706	0.3187	0.6394	1.271	0.115
602.000	16611.30	0.1722	0.3229	0.6473	1.289	0.1151
602.500	16597.51	0.1736	0.327	0.6558	1.307	0.115
603.000	16583.75	0.1748	0.3307	0.6642	1.323	0.1151
603.500	16570.01	0.1762	0.3345	0.6724	1.339	0.1159
604.000	16556.29	0.1782	0.339	0.6816	1.356	0.1178
604.500	16542.60	0.1807	0.3439	0.6915	1.373	0.1196
605.000	16528.93	0.1828	0.3483	0.7011	1.389	0.1206
605.500	16515.28	0.1847	0.3529	0.7105	1.408	0.1214
606.000	16501.65	0.1865	0.3575	0.7197	1.428	0.1221
606.500	16488.05	0.1881	0.3616	0.7285	1.448	0.1229
607.000	16474.46	0.19	0.3662	0.7373	1.464	0.1239
607.500	16460.91	0.1923	0.3715	0.7467	1.481	0.1253
608.000	16447.37	0.1946	0.3766	0.7566	1.498	0.1266
608.500	16433.85	0.1967	0.3812	0.7665	1.517	0.1278
609.000	16420.36	0.1985	0.3858	0.7757	1.539	0.1287
609.500	16406.89	0.2005	0.3907	0.7849	1.56	0.1296
610.000	16393.44	0.2029	0.3958	0.7949	1.58	0.1306
610.500	16380.02	0.205	0.4008	0.8055	1.601	0.1318
611.000	16366.61	0.2068	0.4056	0.8158	1.621	0.1327
611.500	16353.23	0.2088	0.4105	0.8248	1.638	0.1331
612.000	16339.87	0.2108	0.4155	0.8345	1.657	0.1337
612.500	16326.53	0.2129	0.4207	0.8455	1.681	0.1348
613.000	16313.21	0.2149	0.4258	0.8564	1.708	0.1361
613.500	16299.92	0.2168	0.4307	0.8666	1.726	0.1371
614.000	16286.64	0.2189	0.4358	0.8762	1.733	0.1379
614.500	16273.39	0.2214	0.4413	0.8864	1.752	0.1393
615.000	16260.16	0.224	0.447	0.8976	1.786	0.1412
615.500	16246.95	0.2264	0.4524	0.9085	1.811	0.1428
616.000	16233.77	0.2288	0.4578	0.919	1.83	0.144
616.500	16220.60	0.2314	0.4634	0.9295	1.851	0.1451
617.000	16207.46	0.2338	0.4687	0.9398	1.869	0.1464
617.500	16194.33	0.2361	0.4741	0.9508	1.884	0.1479
618.000	16181.23	0.2385	0.4804	0.9639	1.904	0.1494
618.500	16168.15	0.2412	0.4865	0.9761	1.931	0.1508
619.000	16155.09	0.2439	0.4916	0.9856	1.961	0.1519
619.500	16142.05	0.2459	0.4967	0.9952	1.984	0.1528
620.000	16129.03	0.2477	0.5019	1.006	1.996	0.1538
620.500	16116.04	0.2502	0.5069	1.018	1.999	0.1552
621.000	16103.06	0.2528	0.5124	1.029	2.012	0.1568
621.500	16090.10	0.2549	0.5181	1.038	2.041	0.158
622.000	16077.17	0.2568	0.5231	1.047	2.067	0.1587
622.500	16064.26	0.2588	0.5276	1.056	2.089	0.1593
623.000	16051.36	0.2608	0.5321	1.065	2.115	0.1603
623.500	16038.49	0.2627	0.5369	1.074	2.122	0.1614
624.000	16025.64	0.2647	0.5415	1.083	2.115	0.1626
624.500	16012.81	0.2668	0.5453	1.091	2.129	0.164
625.000	16000.00	0.2688	0.5489	1.098	2.157	0.1653
625.500	15987.21	0.2704	0.5526	1.104	2.176	0.1659
626.000	15974.44	0.2717	0.5555	1.111	2.181	0.1664
626.500	15961.69	0.2728	0.5578	1.117	2.183	0.1669
627.000	15948.96	0.2737	0.5605	1.122	2.199	0.1678
627.500	15936.25	0.2748	0.5632	1.127	2.218	0.1686
628.000	15923.57	0.2761	0.565	1.13	2.224	0.169
628.500	15910.90	0.2767	0.5664	1.132	2.222	0.1692
629.000	15898.25	0.2767	0.5672	1.134	2.22	0.1693
629.500	15885.62	0.2766	0.5672	1.136	2.227	0.1692
630.000	15873.02	0.277	0.5672	1.135	2.249	0.1696
630.500	15860.43	0.2775	0.5676	1.133	2.274	0.1704
631.000	15847.86	0.2772	0.5671	1.13	2.256	0.1704
631.500	15835.31	0.2764	0.5656	1.129	2.228	0.1697
632.000	15822.78	0.2761	0.5636	1.126	2.239	0.1693
632.500	15810.28	0.2757	0.5621	1.124	2.24	0.1689
633.000	15797.79	0.2748	0.561	1.121	2.21	0.1686
633.500	15785.32	0.2737	0.5588	1.117	2.178	0.1682
634.000	15772.87	0.2725	0.5557	1.111	2.166	0.1679
634.500	15760.44	0.2714	0.5525	1.105	2.175	0.1674
635.000	15748.03	0.2702	0.5492	1.098	2.172	0.1667
635.500	15735.64	0.2688	0.5456	1.089	2.15	0.1658
636.000	15723.27	0.2673	0.5419	1.081	2.13	0.165
636.500	15710.92	0.2657	0.5381	1.074	2.12	0.1643
637.000	15698.59	0.2641	0.5339	1.066	2.114	0.1635
637.500	15686.27	0.2624	0.5294	1.059	2.096	0.1626
638.000	15673.98	0.2607	0.5249	1.05	2.071	0.1618
638.500	15661.71	0.2588	0.5206	1.038	2.057	0.161
639.000	15649.45	0.2567	0.516	1.028	2.04	0.1599
639.500	15637.22	0.2543	0.5108	1.02	2.014	0.1586
640.000	15625.00	0.2522	0.5059	1.012	2.002	0.1576
640.500	15612.80	0.2503	0.5013	1.003	1.998	0.1569
641.000	15600.62	0.2485	0.4965	0.9915	1.985	0.156
641.500	15588.46	0.2466	0.4914	0.9806	1.957	0.155
642.000	15576.32	0.2446	0.4863	0.9711	1.92	0.1539
642.500	15564.20	0.2427	0.4814	0.9613	1.891	0.1531
643.000	15552.10	0.2408	0.4767	0.9508	1.875	0.1521
643.500	15540.02	0.2387	0.4721	0.9404	1.866	0.1507
644.000	15527.95	0.2366	0.4673	0.9314	1.849	0.1496
644.500	15515.90	0.2347	0.4625	0.923	1.825	0.1492
645.000	15503.88	0.233	0.4579	0.9134	1.811	0.1487
645.500	15491.87	0.2312	0.4534	0.9037	1.803	0.1478
646.000	15479.88	0.2291	0.4488	0.8952	1.793	0.1464
646.500	15467.90	0.2271	0.4443	0.8871	1.766	0.1452
647.000	15455.95	0.2254	0.44	0.8788	1.736	0.1445
647.500	15444.02	0.2239	0.4361	0.8699	1.724	0.144
648.000	15432.10	0.2224	0.4325	0.8612	1.715	0.1433
648.500	15420.20	0.2208	0.4292	0.8535	1.697	0.1424
649.000	15408.32	0.2194	0.4255	0.847	1.678	0.1417
649.500	15396.46	0.2181	0.4218	0.8409	1.665	0.1411
650.000	15384.62	0.2167	0.4187	0.834	1.659	0.1404
650.500	15372.79	0.2156	0.4158	0.8278	1.647	0.1399
651.000	15360.98	0.2147	0.4128	0.8225	1.629	0.1396
651.500	15349.19	0.2135	0.4101	0.8164	1.623	0.1389
652.000	15337.42	0.2123	0.4075	0.8103	1.619	0.1381
652.500	15325.67	0.2118	0.4051	0.8053	1.603	0.1378
653.000	15313.94	0.2113	0.4028	0.8006	1.59	0.1378
653.500	15302.22	0.2105	0.401	0.7967	1.583	0.1376
654.000	15290.52	0.21	0.3995	0.7939	1.573	0.1372
654.500	15278.84	0.2095	0.3972	0.7892	1.561	0.1353
655.000	15267.18	0.2069	0.3926	0.7797	1.551	0.1297
655.500	15255.53	0.2002	0.3858	0.7684	1.539	0.1201
656.000	15243.90	0.1955	0.3827	0.7633	1.533	0.1146
656.500	15232.29	0.1953	0.3853	0.766	1.534	0.1157
657.000	15220.70	0.1983	0.3901	0.7719	1.536	0.1217
657.500	15209.13	0.2042	0.3922	0.7749	1.534	0.1313
658.000	15197.57	0.2077	0.3912	0.7727	1.531	0.1375
658.500	15186.03	0.2065	0.3894	0.7689	1.528	0.1362
659.000	15174.51	0.2063	0.3888	0.7681	1.522	0.1362
659.500	15163.00	0.2067	0.3886	0.7675	1.516	0.1369
660.000	15151.52	0.2067	0.3882	0.7654	1.514	0.1369
660.500	15140.05	0.2068	0.3876	0.7637	1.513	0.1369
661.000	15128.59	0.2069	0.3871	0.7625	1.51	0.1372
661.500	15117.16	0.2068	0.3867	0.7609	1.5	0.1373
662.000	15105.74	0.2066	0.3861	0.7591	1.495	0.1373
662.500	15094.34	0.2066	0.3856	0.7574	1.494	0.1373
663.000	15082.96	0.2066	0.3854	0.7559	1.491	0.1374
663.500	15071.59	0.2064	0.3848	0.7538	1.487	0.1376
664.000	15060.24	0.2062	0.3833	0.7505	1.481	0.1376
664.500	15048.91	0.2058	0.3817	0.7479	1.473	0.1373
665.000	15037.59	0.2052	0.3803	0.7456	1.465	0.1371
665.500	15026.30	0.2046	0.3788	0.7423	1.46	0.1369
666.000	15015.02	0.2042	0.3772	0.7385	1.45	0.1369
666.500	15003.75	0.2039	0.3756	0.7349	1.435	0.1368
667.000	14992.50	0.2031	0.3737	0.7308	1.429	0.1362
667.500	14981.27	0.202	0.3716	0.7264	1.428	0.1355
668.000	14970.06	0.2014	0.3695	0.722	1.421	0.1354
668.500	14958.86	0.2007	0.3671	0.717	1.409	0.1351
669.000	14947.68	0.1996	0.3646	0.7114	1.395	0.1345
669.500	14936.52	0.1986	0.3621	0.7058	1.383	0.1337
670.000	14925.37	0.1976	0.3596	0.7006	1.374	0.1331
670.500	14914.24	0.1964	0.357	0.6956	1.367	0.1328
671.000	14903.13	0.1954	0.354	0.6901	1.356	0.1324
671.500	14892.03	0.1944	0.3507	0.684	1.343	0.1316
672.000	14880.95	0.1927	0.3474	0.6781	1.332	0.1305
672.500	14869.89	0.1911	0.3443	0.6719	1.319	0.1297
673.000	14858.84	0.1902	0.3414	0.6651	1.303	0.1293
673.500	14847.81	0.1888	0.3381	0.6581	1.29	0.1288
674.000	14836.80	0.187	0.3344	0.6515	1.278	0.1279
674.500	14825.80	0.1857	0.3311	0.6455	1.266	0.1271
675.000	14814.81	0.1842	0.3275	0.6384	1.253	0.1262
675.500	14803.85	0.1822	0.3232	0.63	1.242	0.1252
676.000	14792.90	0.1803	0.3192	0.6225	1.226	0.1241
676.500	14781.97	0.1785	0.3153	0.6154	1.209	0.123
677.000	14771.05	0.1766	0.311	0.6077	1.194	0.1219
677.500	14760.15	0.1746	0.3067	0.5997	1.177	0.1208
678.000	14749.26	0.1725	0.3024	0.5917	1.16	0.1195
678.500	14738.39	0.1705	0.2982	0.5832	1.145	0.1185
679.000	14727.54	0.1685	0.2939	0.5748	1.131	0.1174
679.500	14716.70	0.1666	0.2894	0.5667	1.117	0.116
680.000	14705.88	0.1645	0.2849	0.5584	1.103	0.1148
680.500	14695.08	0.1624	0.2805	0.55	1.087	0.1136
681.000	14684.29	0.1604	0.2761	0.5419	1.071	0.1124
681.500	14673.51	0.1583	0.2716	0.534	1.054	0.1112
682.000	14662.76	0.1561	0.2671	0.526	1.039	0.1101
682.500	14652.01	0.1541	0.2625	0.5177	1.023	0.1089
683.000	14641.29	0.1523	0.2582	0.5094	1.007	0.1076
683.500	14630.58	0.1505	0.2543	0.5012	0.9921	0.1064
684.000	14619.88	0.1484	0.25	0.493	0.9787	0.105
684.500	14609.20	0.1461	0.2451	0.4849	0.9649	0.1035
685.000	14598.54	0.1443	0.2411	0.477	0.9483	0.1026
685.500	14587.89	0.1426	0.2374	0.4693	0.9319	0.1019
686.000	14577.26	0.1405	0.2332	0.462	0.9182	0.1008
686.500	14566.64	0.1386	0.2289	0.4545	0.904	0.09967
687.000	14556.04	0.1369	0.2247	0.4467	0.8886	0.09874
687.500	14545.45	0.1354	0.2207	0.4388	0.8733	0.09773
688.000	14534.88	0.1338	0.217	0.4312	0.8588	0.09669
688.500	14524.33	0.1322	0.2135	0.4241	0.8449	0.0957
689.000	14513.79	0.1302	0.2095	0.4165	0.8307	0.09476
689.500	14503.26	0.1282	0.2054	0.4088	0.8161	0.09383
690.000	14492.75	0.1268	0.2019	0.402	0.8017	0.09294
690.500	14482.26	0.1255	0.1985	0.395	0.7882	0.09218
691.000	14471.78	0.1238	0.1949	0.3877	0.7752	0.09156
691.500	14461.32	0.1222	0.1913	0.3811	0.7618	0.09089
692.000	14450.87	0.1207	0.1878	0.3746	0.7477	0.09011
692.500	14440.43	0.1192	0.1843	0.3673	0.7337	0.08931
693.000	14430.01	0.118	0.1809	0.3604	0.7208	0.08861
693.500	14419.61	0.1169	0.1778	0.3541	0.7085	0.08794
694.000	14409.22	0.1152	0.1744	0.3477	0.6955	0.08708
694.500	14398.85	0.1137	0.171	0.3412	0.6823	0.08624
695.000	14388.49	0.1126	0.168	0.3346	0.6698	0.08563
695.500	14378.15	0.1114	0.1651	0.3285	0.6578	0.08519
696.000	14367.82	0.11	0.1619	0.3227	0.6456	0.08462
696.500	14357.50	0.1086	0.1584	0.3166	0.633	0.08371
697.000	14347.20	0.1073	0.1555	0.3105	0.6211	0.08292
697.500	14336.92	0.106	0.1531	0.3048	0.6102	0.08244
698.000	14326.65	0.1049	0.1502	0.2991	0.5989	0.08189
698.500	14316.39	0.1038	0.147	0.2935	0.5875	0.08126
699.000	14306.15	0.1024	0.1442	0.2881	0.5767	0.0807
699.500	14295.93	0.1014	0.1417	0.2827	0.5658	0.08022
700.000	14285.71	0.1005	0.1393	0.2772	0.5548	0.07978
700.500	14275.52	0.09938	0.1367	0.272	0.5443	0.07926
701.000	14265.34	0.0981	0.1339	0.267	0.5343	0.07868
701.500	14255.17	0.09702	0.1311	0.2621	0.5243	0.0781
702.000	14245.01	0.0961	0.1287	0.2571	0.5145	0.07756
702.500	14234.88	0.09523	0.1268	0.2522	0.5051	0.0771
703.000	14224.75	0.09432	0.1247	0.2479	0.4959	0.07672
703.500	14214.64	0.09332	0.1223	0.2435	0.4869	0.07624
704.000	14204.55	0.09231	0.1199	0.2388	0.4782	0.07563
704.500	14194.46	0.09155	0.1177	0.2342	0.4695	0.07507
705.000	14184.40	0.09091	0.1158	0.2301	0.4611	0.07475
705.500	14174.34	0.0901	0.114	0.2264	0.4531	0.07461
706.000	14164.31	0.08904	0.1118	0.2224	0.4447	0.07405
706.500	14154.28	0.08792	0.1093	0.2182	0.4362	0.07311
707.000	14144.27	0.08709	0.1074	0.2143	0.4284	0.07252
707.500	14134.28	0.08645	0.1058	0.2107	0.4212	0.07236
708.000	14124.29	0.08579	0.1043	0.207	0.414	0.07237
708.500	14114.33	0.08507	0.1025	0.2034	0.4069	0.07208
709.000	14104.37	0.08433	0.1005	0.1999	0.3998	0.07153
709.500	14094.43	0.08367	0.09878	0.1965	0.393	0.07102
710.000	14084.51	0.08296	0.09697	0.193	0.3861	0.07056
710.500	14074.60	0.08213	0.09509	0.1897	0.3792	0.07013
711.000	14064.70	0.08127	0.09359	0.1865	0.3727	0.06978
711.500	14054.81	0.08062	0.09223	0.1834	0.3666	0.06944
712.000	14044.94	0.08025	0.09061	0.1803	0.3607	0.06903
712.500	14035.09	0.07963	0.08889	0.1773	0.3545	0.06862
713.000	14025.25	0.07879	0.0873	0.1743	0.3482	0.06825
713.500	14015.42	0.07835	0.08599	0.1712	0.3428	0.06795
714.000	14005.60	0.07793	0.0848	0.1686	0.3375	0.0677
714.500	13995.80	0.07717	0.08351	0.1662	0.3315	0.06741
715.000	13986.01	0.07647	0.08208	0.1636	0.3262	0.0669
715.500	13976.24	0.07597	0.08064	0.1606	0.3213	0.0664
716.000	13966.48	0.07555	0.07936	0.158	0.3162	0.06626
716.500	13956.73	0.07498	0.07809	0.1555	0.3108	0.06601
717.000	13947.00	0.07424	0.07674	0.1529	0.3054	0.06547
717.500	13937.28	0.07358	0.07542	0.1502	0.3003	0.06507
718.000	13927.58	0.07307	0.07411	0.1476	0.2957	0.06479
718.500	13917.88	0.07264	0.07277	0.1453	0.2913	0.06447
719.000	13908.21	0.07218	0.0716	0.1432	0.2869	0.06419
719.500	13898.54	0.07171	0.07061	0.1412	0.2825	0.06396
720.000	13888.89	0.07131	0.06968	0.1391	0.2783	0.06373
720.500	13879.25	0.07081	0.06867	0.1369	0.274	0.06343
721.000	13869.63	0.07014	0.06752	0.1345	0.2694	0.06306
721.500	13860.01	0.06951	0.06629	0.1323	0.2651	0.06268
722.000	13850.42	0.06915	0.06516	0.1304	0.2612	0.06242
722.500	13840.83	0.06907	0.06425	0.1287	0.2576	0.06237
723.000	13831.26	0.06884	0.06347	0.1268	0.2538	0.06221
723.500	13821.70	0.06825	0.06261	0.1247	0.2497	0.06179
724.000	13812.15	0.06757	0.06152	0.1228	0.2456	0.06127
724.500	13802.62	0.06707	0.06043	0.1208	0.2418	0.06077
725.000	13793.10	0.06681	0.05954	0.1187	0.2384	0.06039
725.500	13783.60	0.06643	0.05856	0.1167	0.2347	0.0601
726.000	13774.10	0.06589	0.05759	0.115	0.2308	0.05988
726.500	13764.62	0.0654	0.05689	0.1136	0.2278	0.05972
727.000	13755.16	0.06505	0.0561	0.1122	0.2247	0.05965
727.500	13745.70	0.06477	0.05503	0.1104	0.2212	0.05954
728.000	13736.26	0.06442	0.05412	0.1086	0.2179	0.05918
728.500	13726.84	0.06394	0.05343	0.1069	0.2149	0.0589
729.000	13717.42	0.06343	0.0528	0.1057	0.212	0.05904
729.500	13708.02	0.06322	0.052	0.1043	0.209	0.05891
730.000	13698.63	0.06323	0.05111	0.1026	0.2062	0.0584
730.500	13689.25	0.06297	0.05042	0.1011	0.2035	0.05814
731.000	13679.89	0.06247	0.04965	0.09959	0.2006	0.05791
731.500	13670.54	0.06195	0.04867	0.09801	0.1972	0.05748
732.000	13661.20	0.06158	0.0481	0.09671	0.1946	0.05739
732.500	13651.88	0.0614	0.04774	0.09563	0.1925	0.05753
733.000	13642.56	0.06132	0.04694	0.09443	0.19	0.05743
733.500	13633.27	0.06104	0.04612	0.09304	0.1873	0.05725
734.000	13623.98	0.06055	0.04551	0.09162	0.1847	0.05709
734.500	13614.70	0.06028	0.04479	0.09042	0.1821	0.05674
735.000	13605.44	0.06006	0.04408	0.08921	0.1794	0.05627
735.500	13596.19	0.05967	0.0436	0.0878	0.1771	0.05589
736.000	13586.96	0.05945	0.04319	0.08678	0.1749	0.05589
736.500	13577.73	0.0594	0.04268	0.08607	0.1728	0.05607
737.000	13568.52	0.05921	0.04197	0.08505	0.1708	0.05592
737.500	13559.32	0.05902	0.04144	0.08392	0.1689	0.05584
738.000	13550.14	0.05894	0.04118	0.08291	0.1671	0.05608
738.500	13540.96	0.05878	0.04062	0.08186	0.1648	0.05612
739.000	13531.80	0.05844	0.03986	0.08074	0.1626	0.05577
739.500	13522.65	0.05798	0.03929	0.07962	0.1609	0.05522
740.000	13513.51	0.05784	0.03892	0.0786	0.1589	0.05498
740.500	13504.39	0.05793	0.03858	0.07767	0.1567	0.05508
741.000	13495.28	0.05759	0.03805	0.07678	0.1549	0.05501
741.500	13486.18	0.05728	0.03758	0.076	0.1535	0.05495
742.000	13477.09	0.05743	0.03734	0.07537	0.1519	0.05512
742.500	13468.01	0.05746	0.037	0.07468	0.1502	0.05524
743.000	13458.95	0.05718	0.0365	0.07383	0.1484	0.05522
743.500	13449.90	0.05678	0.03603	0.07291	0.1466	0.05509
744.000	13440.86	0.05661	0.03571	0.07209	0.1448	0.05488
744.500	13431.83	0.05663	0.03544	0.07134	0.1432	0.05461
745.000	13422.82	0.05635	0.0349	0.0704	0.1416	0.05434
745.500	13413.82	0.05598	0.03443	0.06947	0.14	0.05422
746.000	13404.83	0.05586	0.03429	0.06877	0.1385	0.05428
746.500	13395.85	0.05567	0.03378	0.06795	0.1368	0.05412
747.000	13386.88	0.05541	0.03306	0.06707	0.1352	0.05374
747.500	13377.93	0.05541	0.03295	0.06654	0.1339	0.05358
748.000	13368.98	0.05538	0.03299	0.06608	0.1326	0.05364
748.500	13360.05	0.05516	0.03272	0.06548	0.1312	0.05379
749.000	13351.13	0.0552	0.03241	0.06497	0.13	0.05388
749.500	13342.23	0.05527	0.03209	0.06434	0.1288	0.05386
750.000	13333.33	0.05501	0.03166	0.06338	0.1274	0.05379
750.500	13324.45	0.05479	0.03134	0.06261	0.126	0.05367
751.000	13315.58	0.05479	0.03118	0.06222	0.1248	0.05358
751.500	13306.72	0.05481	0.03097	0.06182	0.1238	0.05367
752.000	13297.87	0.05487	0.03072	0.06143	0.1226	0.05379
752.500	13289.04	0.05493	0.03049	0.06097	0.1214	0.05373
753.000	13280.21	0.05462	0.0302	0.06007	0.1199	0.05352
753.500	13271.40	0.05412	0.02993	0.0591	0.1184	0.05325
754.000	13262.60	0.05388	0.02979	0.05871	0.1174	0.05305
754.500	13253.81	0.05386	0.02946	0.05845	0.1165	0.0531
755.000	13245.03	0.05387	0.02896	0.05793	0.1155	0.05332
755.500	13236.27	0.05371	0.02877	0.05726	0.1142	0.05329
756.000	13227.51	0.05354	0.02858	0.05662	0.1131	0.05313
756.500	13218.77	0.05351	0.02807	0.05611	0.112	0.05301
757.000	13210.04	0.05331	0.02776	0.05559	0.1109	0.05267
757.500	13201.32	0.05308	0.02767	0.05504	0.1096	0.05234
758.000	13192.61	0.05319	0.02746	0.05455	0.1085	0.05251
758.500	13183.92	0.05319	0.02731	0.05406	0.1075	0.05258
759.000	13175.23	0.05288	0.02722	0.0535	0.1066	0.05226
759.500	13166.56	0.05274	0.02681	0.0529	0.1054	0.0521
760.000	13157.89	0.05283	0.02645	0.05251	0.1044	0.05224
760.500	13149.24	0.05293	0.02658	0.05246	0.1041	0.0525
761.000	13140.60	0.05284	0.02657	0.05217	0.1037	0.05272
761.500	13131.98	0.05269	0.02623	0.0516	0.1028	0.05279
762.000	13123.36	0.05276	0.02591	0.05119	0.1018	0.05267
762.500	13114.75	0.05267	0.02555	0.05067	0.1007	0.05244
763.000	13106.16	0.05226	0.02513	0.04993	0.09967	0.0522
763.500	13097.58	0.05211	0.02491	0.04951	0.09876	0.05204
764.000	13089.01	0.05229	0.02489	0.04936	0.09802	0.05199
764.500	13080.44	0.05246	0.02491	0.04913	0.09733	0.05203
765.000	13071.90	0.05229	0.02482	0.04867	0.09646	0.05213
765.500	13063.36	0.05187	0.02459	0.0481	0.09551	0.05223
766.000	13054.83	0.05176	0.02432	0.04772	0.0949	0.05227
766.500	13046.31	0.05185	0.02406	0.04751	0.09436	0.05233
767.000	13037.81	0.05184	0.02382	0.04725	0.09352	0.05237
767.500	13029.32	0.05157	0.02356	0.04668	0.09241	0.05199
768.000	13020.83	0.05131	0.02331	0.04596	0.0913	0.05145
768.500	13012.36	0.05133	0.02312	0.04539	0.0904	0.05124
769.000	13003.90	0.05115	0.0228	0.04489	0.08936	0.05097
769.500	12995.45	0.05072	0.0224	0.0444	0.08826	0.05059
770.000	12987.01	0.05063	0.02217	0.04411	0.08777	0.05064
770.500	12978.59	0.05077	0.02199	0.04384	0.08746	0.05088
771.000	12970.17	0.05079	0.02169	0.04343	0.08672	0.05091
771.500	12961.76	0.05066	0.02153	0.04315	0.0859	0.05085
772.000	12953.37	0.05059	0.02155	0.04305	0.08531	0.05098
772.500	12944.98	0.05084	0.02151	0.04294	0.08498	0.05146
773.000	12936.61	0.05092	0.02119	0.04252	0.08428	0.0514
773.500	12928.25	0.05071	0.02077	0.04192	0.08325	0.05077
774.000	12919.90	0.05077	0.02087	0.04175	0.08291	0.05089
774.500	12911.56	0.05082	0.02102	0.04175	0.08271	0.05137
775.000	12903.23	0.05048	0.02061	0.04141	0.08185	0.05132
775.500	12894.91	0.05045	0.02018	0.0408	0.08102	0.05107
776.000	12886.60	0.0507	0.01998	0.04026	0.08043	0.05093
776.500	12878.30	0.05066	0.01987	0.04011	0.07971	0.05099
777.000	12870.01	0.05059	0.01978	0.03998	0.07909	0.05106
777.500	12861.74	0.05061	0.01962	0.03956	0.07863	0.05092
778.000	12853.47	0.05028	0.01925	0.039	0.0779	0.05049
778.500	12845.22	0.04988	0.01894	0.03852	0.07694	0.05013
779.000	12836.97	0.04986	0.0189	0.03821	0.07607	0.05012
779.500	12828.74	0.0498	0.01865	0.03761	0.07529	0.04981
780.000	12820.51	0.04957	0.01823	0.03698	0.07459	0.0493
780.500	12812.30	0.04935	0.0181	0.0371	0.07399	0.04935
781.000	12804.10	0.04939	0.01824	0.03717	0.07365	0.04973
781.500	12795.91	0.04971	0.01838	0.03668	0.07351	0.05
782.000	12787.72	0.04993	0.01821	0.0364	0.07309	0.05
782.500	12779.55	0.04982	0.01778	0.03622	0.07234	0.04984
783.000	12771.39	0.04945	0.01741	0.03575	0.07157	0.04975
783.500	12763.24	0.0494	0.01742	0.03564	0.0713	0.04982
784.000	12755.10	0.04957	0.01756	0.03578	0.0712	0.04987
784.500	12746.97	0.04921	0.01718	0.0353	0.07021	0.04957
785.000	12738.85	0.04884	0.01672	0.03458	0.06916	0.04923
785.500	12730.74	0.04891	0.0166	0.03416	0.0688	0.04919
786.000	12722.65	0.04897	0.01647	0.03402	0.06862	0.04938
786.500	12714.56	0.04904	0.01636	0.03395	0.06841	0.04961
787.000	12706.48	0.04926	0.0164	0.03372	0.0681	0.04964
787.500	12698.41	0.04917	0.01623	0.03337	0.06741	0.04935
788.000	12690.36	0.04877	0.01588	0.03303	0.06648	0.0489
788.500	12682.31	0.04863	0.01582	0.0328	0.06588	0.04871
789.000	12674.27	0.04869	0.0158	0.03267	0.0655	0.04897
789.500	12666.24	0.04872	0.01552	0.03254	0.06503	0.04938
790.000	12658.23	0.04856	0.01516	0.03212	0.06432	0.04896
790.500	12650.22	0.04832	0.01486	0.03157	0.06364	0.04819
791.000	12642.23	0.04818	0.01468	0.03126	0.06334	0.04812
791.500	12634.24	0.0483	0.01476	0.03119	0.06315	0.0485
792.000	12626.26	0.04846	0.01487	0.03123	0.0628	0.04875
792.500	12618.30	0.04818	0.01447	0.03109	0.06221	0.04837
793.000	12610.34	0.04771	0.014	0.03052	0.06136	0.04785
793.500	12602.39	0.04747	0.0139	0.0297	0.0605	0.04771
794.000	12594.46	0.04762	0.01398	0.02957	0.06021	0.04788
794.500	12586.53	0.04789	0.01403	0.0298	0.0602	0.048
795.000	12578.62	0.04786	0.01391	0.02954	0.05981	0.04781
795.500	12570.71	0.04778	0.01365	0.02924	0.05922	0.04772
796.000	12562.81	0.04782	0.01341	0.02919	0.05876	0.04787
796.500	12554.93	0.04788	0.01341	0.02914	0.0586	0.04791
797.000	12547.05	0.0478	0.01338	0.02893	0.05822	0.0478
797.500	12539.18	0.04754	0.01313	0.02859	0.0574	0.04769
798.000	12531.33	0.04745	0.01296	0.02837	0.05695	0.04782
798.500	12523.48	0.04754	0.01298	0.02833	0.05686	0.04795
799.000	12515.64	0.04759	0.01306	0.0283	0.0566	0.04775
799.500	12507.82	0.04754	0.01291	0.0279	0.05595	0.0476
800.000	12500.00	0.04742	0.01256	0.02728	0.05511	0.04762
800.500	12492.19	0.04732	0.01235	0.02705	0.05458	0.04742
801.000	12484.39	0.04726	0.01232	0.02694	0.0543	0.0472
801.500	12476.61	0.04722	0.01235	0.02663	0.05406	0.04714
802.000	12468.83	0.04725	0.01226	0.02651	0.05386	0.04704
802.500	12461.06	0.04726	0.01205	0.02654	0.05363	0.04698
803.000	12453.30	0.0471	0.01186	0.02641	0.05332	0.0471
803.500	12445.55	0.04695	0.01186	0.02614	0.05302	0.04704
804.000	12437.81	0.04705	0.01195	0.0259	0.05277	0.04689
804.500	12430.08	0.04746	0.0118	0.02588	0.05251	0.04732
805.000	12422.36	0.04764	0.0117	0.02593	0.05223	0.04763
805.500	12414.65	0.0473	0.01179	0.02581	0.05192	0.04729
806.000	12406.95	0.04715	0.01155	0.02543	0.0516	0.04715
806.500	12399.26	0.04726	0.0112	0.02503	0.05125	0.04724
807.000	12391.57	0.0473	0.01125	0.02495	0.05088	0.04708
807.500	12383.90	0.04715	0.01129	0.02495	0.05053	0.04685
808.000	12376.24	0.04682	0.01104	0.02474	0.05011	0.04669
808.500	12368.58	0.0464	0.01071	0.0242	0.04948	0.04661
809.000	12360.94	0.0464	0.01064	0.02399	0.04916	0.04681
809.500	12353.30	0.04693	0.01093	0.02436	0.04933	0.04722
810.000	12345.68	0.04713	0.01101	0.02427	0.0492	0.04713
810.500	12338.06	0.04691	0.01087	0.02381	0.04873	0.04692
811.000	12330.46	0.0467	0.01085	0.02371	0.04841	0.04729
811.500	12322.86	0.04671	0.0109	0.02376	0.04813	0.04737
812.000	12315.27	0.04687	0.01088	0.02379	0.04783	0.04697
812.500	12307.69	0.04689	0.01067	0.02378	0.04765	0.04685
813.000	12300.12	0.04684	0.01041	0.02353	0.0474	0.04688
813.500	12292.56	0.04688	0.01037	0.0231	0.04701	0.04688
814.000	12285.01	0.04688	0.01072	0.02322	0.0468	0.04719
814.500	12277.47	0.04677	0.01092	0.02343	0.04668	0.04737
815.000	12269.94	0.04658	0.01043	0.02291	0.04641	0.04684
815.500	12262.42	0.04657	0.01015	0.02253	0.04609	0.04654
816.000	12254.90	0.04671	0.01028	0.02253	0.04577	0.04676
816.500	12247.40	0.04665	0.01009	0.02234	0.0454	0.04688
817.000	12239.90	0.0465	0.00987	0.02224	0.04511	0.04677
817.500	12232.42	0.04652	0.009949	0.0225	0.04503	0.04664
818.000	12224.94	0.04682	0.00997	0.02267	0.04498	0.04683
818.500	12217.47	0.04711	0.009997	0.02259	0.04485	0.04721
819.000	12210.01	0.04702	0.01022	0.02236	0.04459	0.04734
819.500	12202.56	0.04684	0.01027	0.02216	0.04423	0.04711
820.000	12195.12	0.0468	0.01004	0.022	0.04381	0.04668
820.500	12187.69	0.04691	0.009833	0.02173	0.04339	0.04645
821.000	12180.27	0.04699	0.009917	0.02175	0.0432	0.04662
821.500	12172.85	0.0469	0.01021	0.02209	0.04326	0.04701
822.000	12165.45	0.04674	0.01008	0.02183	0.04314	0.04697
822.500	12158.05	0.04662	0.009763	0.02133	0.04282	0.0467
823.000	12150.67	0.04661	0.009754	0.02128	0.04246	0.04671
823.500	12143.29	0.04651	0.00978	0.02114	0.04207	0.0469
824.000	12135.92	0.04648	0.009728	0.0209	0.04176	0.04706
824.500	12128.56	0.04685	0.009744	0.02108	0.04169	0.04704
825.000	12121.21	0.04731	0.009809	0.02124	0.0418	0.04705
825.500	12113.87	0.04746	0.009869	0.0211	0.04184	0.04717
826.000	12106.54	0.0472	0.009897	0.02108	0.04148	0.0471
826.500	12099.21	0.047	0.009896	0.0211	0.04125	0.04694
827.000	12091.90	0.04725	0.009839	0.02088	0.04153	0.04687
827.500	12084.59	0.0472	0.009591	0.02055	0.04134	0.04677
828.000	12077.29	0.04686	0.009335	0.02034	0.04066	0.04682
828.500	12070.01	0.04685	0.009415	0.02044	0.04036	0.04728
829.000	12062.73	0.04692	0.009559	0.02054	0.04047	0.04746
829.500	12055.46	0.04694	0.009586	0.02052	0.04063	0.04716
830.000	12048.19	0.04716	0.00967	0.02064	0.04042	0.04718
830.500	12040.94	0.04725	0.009634	0.02067	0.04008	0.04731
831.000	12033.69	0.04694	0.009364	0.02043	0.03996	0.04717
831.500	12026.46	0.04679	0.009279	0.02028	0.03979	0.04711
832.000	12019.23	0.04682	0.009334	0.02014	0.03936	0.04711
832.500	12012.01	0.04667	0.009206	0.0197	0.03872	0.04695
833.000	12004.80	0.04658	0.009145	0.01951	0.03853	0.04698
833.500	11997.60	0.04667	0.009218	0.01963	0.03875	0.04713
834.000	11990.41	0.04677	0.009138	0.0194	0.03844	0.04675
834.500	11983.22	0.04693	0.009109	0.01924	0.03813	0.04647
835.000	11976.05	0.04718	0.009332	0.01955	0.03838	0.0468
835.500	11968.88	0.04722	0.009572	0.01988	0.03849	0.04703
836.000	11961.72	0.0471	0.009572	0.01975	0.03826	0.04681
836.500	11954.57	0.04702	0.009199	0.01902	0.03793	0.04637
837.000	11947.43	0.04672	0.008684	0.01865	0.03751	0.04637
837.500	11940.30	0.0464	0.008497	0.01901	0.03716	0.04677
838.000	11933.17	0.0467	0.009057	0.01955	0.03718	0.0468
838.500	11926.06	0.047	0.009333	0.01963	0.0373	0.04683
839.000	11918.95	0.04683	0.00882	0.01918	0.03727	0.04715
839.500	11911.85	0.04686	0.008858	0.01914	0.0372	0.04708
840.000	11904.76	0.04695	0.009345	0.01937	0.03706	0.04678
840.500	11897.68	0.04672	0.009398	0.0192	0.03675	0.04676
841.000	11890.61	0.04673	0.00887	0.01875	0.03637	0.04696
841.500	11883.54	0.04693	0.008353	0.01836	0.03604	0.04704
842.000	11876.48	0.04674	0.008716	0.01839	0.03585	0.04673
842.500	11869.44	0.04681	0.009171	0.01866	0.03605	0.04661
843.000	11862.40	0.04747	0.009083	0.01891	0.03651	0.04691
843.500	11855.36	0.04793	0.008887	0.019	0.03648	0.04694
844.000	11848.34	0.04779	0.008758	0.01868	0.03608	0.04679
844.500	11841.33	0.04717	0.008673	0.01802	0.03574	0.04677
845.000	11834.32	0.0469	0.008601	0.01806	0.0354	0.04659
845.500	11827.32	0.04716	0.008521	0.01864	0.03502	0.04638
846.000	11820.33	0.04752	0.008452	0.01871	0.03471	0.04652
846.500	11813.35	0.04757	0.008559	0.0184	0.03488	0.04694
847.000	11806.38	0.04734	0.008808	0.01812	0.03534	0.04724
847.500	11799.41	0.04745	0.008866	0.01819	0.03514	0.04693
848.000	11792.45	0.04755	0.008618	0.01839	0.03467	0.04644
848.500	11785.50	0.04728	0.008207	0.01837	0.03452	0.04634
849.000	11778.56	0.04709	0.008068	0.01794	0.03429	0.04657
849.500	11771.63	0.04722	0.008251	0.01766	0.03404	0.04691
850.000	11764.71	0.04756	0.008499	0.01809	0.0341	0.04708
850.500	11757.79	0.04756	0.008559	0.01819	0.03397	0.04694
851.000	11750.88	0.04711	0.008167	0.01748	0.0334	0.04652
851.500	11743.98	0.04665	0.00725	0.01652	0.0326	0.04599
852.000	11737.09	0.04627	0.006875	0.01609	0.032	0.04534
852.500	11730.21	0.04607	0.007502	0.01638	0.03184	0.04481
853.000	11723.33	0.04628	0.007962	0.01669	0.03198	0.04506
853.500	11716.46	0.04647	0.007839	0.01674	0.03211	0.04557
854.000	11709.60	0.04621	0.00743	0.01663	0.03201	0.04551
854.500	11702.75	0.04632	0.007543	0.01668	0.03204	0.04533
855.000	11695.91	0.04694	0.008124	0.01701	0.03221	0.04552
855.500	11689.07	0.04742	0.008378	0.01746	0.03226	0.04623
856.000	11682.24	0.04759	0.008445	0.01767	0.03233	0.0467
856.500	11675.42	0.04757	0.008449	0.01746	0.03255	0.04652
857.000	11668.61	0.04766	0.008145	0.01703	0.03287	0.0463
857.500	11661.81	0.04784	0.008127	0.01698	0.03308	0.04642
858.000	11655.01	0.04786	0.008655	0.01746	0.03291	0.04676
858.500	11648.22	0.04729	0.008318	0.01734	0.03222	0.04636
859.000	11641.44	0.04685	0.007513	0.01672	0.03153	0.04582
859.500	11634.67	0.04754	0.007702	0.01658	0.03158	0.0464
860.000	11627.91	0.04805	0.008377	0.01707	0.03206	0.04679
860.500	11621.15	0.04763	0.008723	0.01767	0.03234	0.04655
861.000	11614.40	0.04689	0.008304	0.01754	0.03195	0.04674
861.500	11607.66	0.04681	0.007842	0.01699	0.03153	0.04681
862.000	11600.93	0.04752	0.007966	0.01669	0.03164	0.0464
862.500	11594.20	0.04759	0.008277	0.01697	0.03192	0.04657
863.000	11587.49	0.04721	0.008296	0.01717	0.03202	0.04693
863.500	11580.78	0.04723	0.007856	0.01669	0.03177	0.0466
864.000	11574.07	0.04731	0.007644	0.01657	0.03119	0.04625
864.500	11567.38	0.04734	0.007956	0.01696	0.03073	0.04635
865.000	11560.69	0.04758	0.00849	0.01697	0.03095	0.04678
865.500	11554.02	0.04772	0.00863	0.01672	0.03112	0.04707
866.000	11547.34	0.04765	0.008348	0.0166	0.03088	0.04704
866.500	11540.68	0.04778	0.008462	0.01686	0.03091	0.04699
867.000	11534.03	0.0479	0.008611	0.01719	0.03102	0.04693
867.500	11527.38	0.04768	0.008365	0.01722	0.03088	0.0468
868.000	11520.74	0.04731	0.008449	0.01695	0.03076	0.04669
868.500	11514.10	0.04742	0.008543	0.01683	0.03085	0.04679
869.000	11507.48	0.04834	0.007916	0.01718	0.03108	0.04708
869.500	11500.86	0.04831	0.00779	0.01695	0.03092	0.04696
870.000	11494.25	0.04726	0.008342	0.0162	0.03047	0.04646
870.500	11487.65	0.0473	0.00823	0.01634	0.03047	0.04635
871.000	11481.06	0.0477	0.00763	0.01651	0.0304	0.04626
871.500	11474.47	0.04757	0.007368	0.01611	0.03003	0.04602
872.000	11467.89	0.04764	0.008141	0.01632	0.03032	0.04638
872.500	11461.32	0.0476	0.008687	0.01662	0.03045	0.04671
873.000	11454.75	0.04709	0.007794	0.0161	0.02945	0.04616
873.500	11448.20	0.04735	0.007402	0.01604	0.02884	0.04573
874.000	11441.65	0.04801	0.007813	0.01648	0.02903	0.04576
874.500	11435.11	0.0476	0.007771	0.01636	0.02919	0.04587
875.000	11428.57	0.04711	0.007694	0.01605	0.02926	0.04617
875.500	11422.04	0.04728	0.007862	0.01598	0.02924	0.04664
876.000	11415.53	0.04755	0.007788	0.01615	0.02901	0.04692
876.500	11409.01	0.04788	0.007895	0.01634	0.02918	0.04702
877.000	11402.51	0.04819	0.008418	0.01639	0.02988	0.04699
877.500	11396.01	0.04788	0.008373	0.01637	0.02963	0.04652
878.000	11389.52	0.04733	0.007922	0.01618	0.02862	0.04596
878.500	11383.04	0.04731	0.007822	0.01579	0.02804	0.04583
879.000	11376.56	0.04758	0.007866	0.0158	0.02819	0.04586
879.500	11370.10	0.04798	0.007928	0.01614	0.02886	0.04599
880.000	11363.64	0.04848	0.008071	0.01613	0.02951	0.04646
880.500	11357.18	0.04843	0.007893	0.01598	0.02941	0.04658
881.000	11350.74	0.04785	0.007535	0.0159	0.02873	0.04616
881.500	11344.30	0.04801	0.008074	0.01558	0.02899	0.0463
882.000	11337.87	0.04847	0.008772	0.01563	0.02958	0.04696
882.500	11331.44	0.04831	0.008571	0.01629	0.02934	0.04743
883.000	11325.03	0.04785	0.008065	0.01604	0.02877	0.04711
883.500	11318.62	0.04759	0.00778	0.01533	0.02835	0.04645
884.000	11312.22	0.04778	0.00788	0.01561	0.02828	0.04636
884.500	11305.82	0.04801	0.008059	0.01596	0.02835	0.04664
885.000	11299.44	0.04794	0.007885	0.01577	0.02827	0.04668
885.500	11293.05	0.04763	0.007159	0.01546	0.02789	0.04596
886.000	11286.68	0.04743	0.007195	0.01535	0.02792	0.04564
886.500	11280.32	0.04752	0.008246	0.01544	0.02851	0.04625
887.000	11273.96	0.04761	0.008089	0.0153	0.02848	0.04636
887.500	11267.61	0.04772	0.007312	0.01506	0.02797	0.04598
888.000	11261.26	0.04796	0.007361	0.01503	0.02768	0.04578
888.500	11254.92	0.04814	0.007609	0.0151	0.02754	0.04578
889.000	11248.59	0.04814	0.007707	0.01533	0.02753	0.0458
889.500	11242.27	0.04801	0.007803	0.01576	0.0277	0.04569
890.000	11235.96	0.04799	0.007924	0.01578	0.0279	0.04596
890.500	11229.65	0.04813	0.008072	0.01536	0.02815	0.04657
891.000	11223.34	0.04826	0.008182	0.0153	0.02863	0.04679
891.500	11217.05	0.04811	0.007809	0.01525	0.02851	0.04639
892.000	11210.76	0.0477	0.007182	0.01501	0.02779	0.04591
892.500	11204.48	0.04752	0.007855	0.01545	0.02844	0.0466
893.000	11198.21	0.04755	0.008813	0.01621	0.02919	0.04753
893.500	11191.94	0.04762	0.008407	0.01643	0.02817	0.04722
894.000	11185.68	0.04814	0.007839	0.01627	0.02787	0.04667
894.500	11179.43	0.04875	0.00778	0.01607	0.02857	0.04645
895.000	11173.18	0.04859	0.007953	0.01603	0.02848	0.04645
895.500	11166.95	0.04831	0.007935	0.01599	0.02812	0.04662
896.000	11160.71	0.04841	0.007822	0.01593	0.02816	0.04686
896.500	11154.49	0.0487	0.008207	0.01606	0.02851	0.04688
897.000	11148.27	0.0486	0.008177	0.01594	0.0286	0.04677
897.500	11142.06	0.048	0.007299	0.01539	0.028	0.04653
898.000	11135.86	0.04793	0.007221	0.0152	0.02706	0.04594
898.500	11129.66	0.0485	0.007691	0.01546	0.0269	0.04584
899.000	11123.47	0.04903	0.007652	0.0158	0.02806	0.04684
899.500	11117.29	0.04858	0.007689	0.01601	0.02834	0.04675
900.000	11111.11	0.0479	0.007967	0.01597	0.02774	0.0459
900.500	11104.94	0.04861	0.007996	0.01562	0.02804	0.04651
901.000	11098.78	0.04878	0.007463	0.01492	0.02775	0.04645
901.500	11092.62	0.04802	0.006984	0.01462	0.02678	0.04551
902.000	11086.47	0.04878	0.007899	0.01596	0.02749	0.04682
902.500	11080.33	0.04957	0.008803	0.01636	0.02835	0.04824
903.000	11074.20	0.04881	0.008385	0.01456	0.02781	0.04738
903.500	11068.07	0.04816	0.007876	0.01484	0.02766	0.04611
904.000	11061.95	0.04822	0.007781	0.0164	0.02783	0.04599
904.500	11055.83	0.04857	0.007873	0.01621	0.02743	0.04711
905.000	11049.72	0.04893	0.00783	0.01547	0.02736	0.04706
905.500	11043.62	0.04881	0.007336	0.01502	0.02742	0.04582
906.000	11037.53	0.04791	0.006519	0.01476	0.0266	0.04551
906.500	11031.44	0.04798	0.007313	0.01472	0.02652	0.04605
907.000	11025.36	0.04907	0.009133	0.01477	0.02721	0.04654
907.500	11019.28	0.04884	0.008244	0.01455	0.02626	0.04621
908.000	11013.22	0.04851	0.006867	0.01446	0.02559	0.04606
908.500	11007.15	0.04917	0.00726	0.01476	0.02673	0.04664
909.000	11001.10	0.04882	0.006995	0.01495	0.02703	0.04633
909.500	10995.05	0.04819	0.006734	0.01506	0.02638	0.0457
910.000	10989.01	0.04894	0.00806	0.01549	0.02632	0.04605
910.500	10982.98	0.04987	0.008776	0.01632	0.0273	0.04636
911.000	10976.95	0.04992	0.008375	0.0168	0.02802	0.04631
911.500	10970.93	0.04894	0.008045	0.01587	0.02672	0.04636
912.000	10964.91	0.04821	0.007342	0.01433	0.02559	0.04621
912.500	10958.90	0.04849	0.006672	0.01363	0.02599	0.04598
913.000	10952.90	0.04933	0.007636	0.01489	0.0268	0.04633
913.500	10946.91	0.04965	0.008632	0.01603	0.02707	0.04641
914.000	10940.92	0.04893	0.008028	0.01546	0.02666	0.04568
914.500	10934.94	0.04816	0.006687	0.01479	0.02659	0.04517
915.000	10928.96	0.04825	0.005965	0.01465	0.02615	0.04521
915.500	10922.99	0.04918	0.006564	0.01486	0.02485	0.04561
916.000	10917.03	0.04907	0.007368	0.01518	0.02515	0.04616
916.500	10911.07	0.04832	0.007836	0.01544	0.02642	0.04617
917.000	10905.13	0.04875	0.007991	0.0155	0.02611	0.04509
917.500	10899.18	0.04904	0.007439	0.01507	0.0258	0.04426
918.000	10893.25	0.04869	0.006927	0.01447	0.02632	0.04461
918.500	10887.32	0.04891	0.008088	0.01458	0.02659	0.0458
919.000	10881.39	0.04918	0.008661	0.01523	0.02685	0.04635
919.500	10875.48	0.04884	0.007214	0.01554	0.02709	0.04575
920.000	10869.57	0.04819	0.006307	0.01444	0.02616	0.04576
920.500	10863.66	0.04811	0.006902	0.01351	0.02533	0.04606
921.000	10857.76	0.04881	0.008198	0.0143	0.02581	0.04567
921.500	10851.87	0.04839	0.007887	0.0149	0.02555	0.04495
922.000	10845.99	0.04771	0.006616	0.01479	0.02533	0.04477
922.500	10840.11	0.04879	0.006632	0.01467	0.02699	0.04559
923.000	10834.24	0.04956	0.007221	0.01444	0.02709	0.04562
923.500	10828.37	0.04957	0.007942	0.01456	0.02562	0.04506
924.000	10822.51	0.05049	0.008992	0.01573	0.02638	0.04602
924.500	10816.66	0.05049	0.008636	0.01579	0.02674	0.0465
925.000	10810.81	0.0491	0.007114	0.01455	0.02537	0.04552
925.500	10804.97	0.04919	0.007919	0.01559	0.02572	0.0455
926.000	10799.14	0.04992	0.008939	0.01681	0.02682	0.04629
926.500	10793.31	0.04965	0.007738	0.01559	0.02667	0.04672
927.000	10787.49	0.04919	0.007075	0.01421	0.02606	0.0463
927.500	10781.67	0.04912	0.007482	0.01382	0.02585	0.04546
928.000	10775.86	0.04958	0.007805	0.01432	0.02629	0.04499
928.500	10770.06	0.05054	0.007818	0.01543	0.02636	0.04498
929.000	10764.26	0.05065	0.007566	0.01586	0.02591	0.04542
929.500	10758.47	0.04844	0.007221	0.0143	0.02561	0.04602
930.000	10752.69	0.04751	0.007177	0.01343	0.02518	0.04543
930.500	10746.91	0.04904	0.007518	0.01453	0.02485	0.04418
931.000	10741.14	0.04968	0.007819	0.01568	0.02557	0.045
931.500	10735.37	0.04945	0.007618	0.016	0.02653	0.04622
932.000	10729.61	0.04962	0.007161	0.01551	0.02657	0.046
932.500	10723.86	0.05063	0.007738	0.0149	0.02541	0.04549
933.000	10718.11	0.05094	0.007983	0.01496	0.02426	0.04515
933.500	10712.37	0.04958	0.006674	0.01568	0.02438	0.04501
934.000	10706.64	0.04978	0.006899	0.0153	0.02492	0.04556
934.500	10700.91	0.05101	0.008087	0.01412	0.02529	0.04613
935.000	10695.19	0.05033	0.007442	0.01389	0.02546	0.0456
935.500	10689.47	0.04903	0.006987	0.01458	0.02567	0.04492
936.000	10683.76	0.0486	0.007629	0.01521	0.02585	0.04502
936.500	10678.06	0.04919	0.007834	0.01462	0.02556	0.04577
937.000	10672.36	0.04906	0.006932	0.01368	0.02452	0.04504
937.500	10666.67	0.04818	0.005679	0.01359	0.02364	0.04311
938.000	10660.98	0.04944	0.006056	0.01469	0.025	0.0441
938.500	10655.30	0.05016	0.006624	0.01506	0.02607	0.04554
939.000	10649.63	0.04827	0.005962	0.01387	0.02469	0.0445
939.500	10643.96	0.0483	0.00606	0.01456	0.02414	0.04388
940.000	10638.30	0.04979	0.006839	0.01579	0.02474	0.04417
940.500	10632.64	0.04948	0.006933	0.01449	0.02496	0.04429
941.000	10626.99	0.04778	0.006218	0.01325	0.02504	0.04462
941.500	10621.35	0.04709	0.00565	0.01347	0.0251	0.04522
942.000	10615.71	0.04942	0.00633	0.01436	0.02483	0.04551
942.500	10610.08	0.0502	0.006669	0.01442	0.02412	0.04437
943.000	10604.45	0.0487	0.006407	0.01381	0.02357	0.043
943.500	10598.83	0.05	0.007321	0.01443	0.0242	0.04449
944.000	10593.22	0.05194	0.008063	0.01551	0.025	0.04564
944.500	10587.61	0.05173	0.007736	0.01593	0.02501	0.04456
945.000	10582.01	0.05033	0.007976	0.01575	0.02468	0.04505
945.500	10576.41	0.04911	0.007868	0.01448	0.02442	0.04583
946.000	10570.82	0.04884	0.006453	0.0127	0.02453	0.04476
946.500	10565.24	0.04885	0.006038	0.01382	0.02524	0.04464
947.000	10559.66	0.04933	0.006931	0.01643	0.02575	0.04563
947.500	10554.09	0.05046	0.007739	0.0167	0.0252	0.04583
948.000	10548.52	0.0502	0.007431	0.0151	0.02468	0.0446
948.500	10542.96	0.04907	0.006455	0.01397	0.02452	0.04313
949.000	10537.41	0.04958	0.006279	0.01542	0.02408	0.0434
949.500	10531.86	0.0501	0.006614	0.01589	0.02367	0.04378
950.000	10526.32	0.04956	0.007103	0.01402	0.02392	0.04361
950.500	10520.78	0.04918	0.007793	0.01311	0.0251	0.04442
951.000	10515.25	0.04938	0.007537	0.01357	0.02495	0.04463
951.500	10509.72	0.04978	0.0063	0.01412	0.02314	0.04351
952.000	10504.20	0.04955	0.006589	0.01325	0.02393	0.04387
952.500	10498.69	0.04992	0.008143	0.01346	0.02565	0.04513
953.000	10493.18	0.05165	0.009134	0.01637	0.02518	0.04557
953.500	10487.68	0.05168	0.008281	0.01659	0.02459	0.04553
954.000	10482.18	0.05022	0.00697	0.01414	0.02443	0.04522
954.500	10476.69	0.04965	0.007377	0.01313	0.02414	0.04489
955.000	10471.20	0.04997	0.007843	0.0145	0.02493	0.04607
955.500	10465.72	0.05052	0.00735	0.01633	0.02518	0.04718
956.000	10460.25	0.05069	0.006569	0.01578	0.0222	0.04495
956.500	10454.78	0.05029	0.007188	0.01542	0.02264	0.04358
957.000	10449.32	0.04966	0.008778	0.01604	0.02716	0.04477
957.500	10443.86	0.04952	0.008198	0.01462	0.02652	0.04463
958.000	10438.41	0.04973	0.005943	0.01293	0.02404	0.0431
958.500	10432.97	0.04999	0.004086	0.01274	0.024	0.04183
959.000	10427.53	0.05024	0.004353	0.01233	0.02332	0.04221
959.500	10422.09	0.04974	0.006067	0.01277	0.023	0.0437
960.000	10416.67	0.04858	0.007268	0.01499	0.02448	0.04492
960.500	10411.24	0.04935	0.006306	0.01576	0.02463	0.04486
961.000	10405.83	0.05102	0.005755	0.01499	0.02446	0.04429
961.500	10400.42	0.05066	0.00848	0.01467	0.02621	0.04453
962.000	10395.01	0.04873	0.008944	0.01481	0.02516	0.04477
962.500	10389.61	0.04751	0.006567	0.01505	0.02255	0.04406
963.000	10384.22	0.0491	0.006049	0.01497	0.02427	0.0425
963.500	10378.83	0.04971	0.007359	0.01377	0.02628	0.04321
964.000	10373.44	0.04837	0.00847	0.01252	0.02561	0.04537
964.500	10368.07	0.04891	0.007349	0.01405	0.02419	0.04387
965.000	10362.69	0.0512	0.006735	0.01754	0.02385	0.04296
965.500	10357.33	0.0531	0.00801	0.0193	0.0248	0.04538
966.000	10351.97	0.05234	0.007938	0.01487	0.02512	0.04619
966.500	10346.61	0.05101	0.006942	0.01186	0.02416	0.04521
967.000	10341.26	0.0509	0.006322	0.01575	0.02281	0.04407
967.500	10335.92	0.04896	0.004983	0.01532	0.02316	0.04255
968.000	10330.58	0.04801	0.004343	0.01221	0.02403	0.043
968.500	10325.25	0.0513	0.006112	0.01372	0.02333	0.04659
969.000	10319.92	0.05138	0.0075	0.01524	0.02291	0.04617
969.500	10314.60	0.04829	0.00651	0.01485	0.02325	0.04268
970.000	10309.28	0.04827	0.003623	0.01412	0.02327	0.0429
970.500	10303.97	0.05036	0.00358	0.01243	0.02263	0.04406
971.000	10298.66	0.05054	0.005806	0.01071	0.02188	0.04321
971.500	10293.36	0.04581	0.004686	0.0117	0.02216	0.04066
972.000	10288.07	0.0457	0.005012	0.015	0.02379	0.04063
972.500	10282.78	0.05197	0.008458	0.01746	0.02549	0.0439
973.000	10277.49	0.05171	0.00841	0.01501	0.02481	0.04531
973.500	10272.21	0.04842	0.007238	0.01283	0.02373	0.04496
974.000	10266.94	0.04931	0.008046	0.01528	0.02412	0.04494
974.500	10261.67	0.05331	0.007636	0.01768	0.02405	0.04596
975.000	10256.41	0.05378	0.005303	0.01654	0.02244	0.04453
975.500	10251.15	0.04726	0.00305	0.01218	0.02011	0.03911
976.000	10245.90	0.04481	0.004606	0.01089	0.02048	0.03809
976.500	10240.66	0.04737	0.006529	0.01266	0.02257	0.0411
977.000	10235.41	0.04879	0.003792	0.01337	0.02334	0.04243
977.500	10230.18	0.04925	0.00377	0.01304	0.02472	0.04363
978.000	10224.95	0.04941	0.007435	0.01269	0.02595	0.0438
978.500	10219.72	0.04929	0.008747	0.01339	0.02433	0.04057
979.000	10214.50	0.04946	0.00796	0.01577	0.02393	0.04129
979.500	10209.29	0.05043	0.006848	0.01796	0.02561	0.0458
980.000	10204.08	0.0519	0.006419	0.01643	0.02483	0.04409
980.500	10198.88	0.05072	0.005645	0.01414	0.02162	0.04108
981.000	10193.68	0.04753	0.004843	0.01432	0.01961	0.04195
981.500	10188.49	0.04902	0.006677	0.01639	0.02364	0.04362
982.000	10183.30	0.05126	0.007341	0.01558	0.02633	0.04333
982.500	10178.12	0.0498	0.004415	0.01094	0.02209	0.04053
983.000	10172.94	0.0491	0.003895	0.0116	0.01985	0.03814
983.500	10167.77	0.04981	0.005575	0.01484	0.02165	0.03941
984.000	10162.60	0.05037	0.006421	0.0143	0.02412	0.04417
984.500	10157.44	0.05138	0.007421	0.01463	0.02379	0.04425
985.000	10152.28	0.05269	0.008084	0.01539	0.02215	0.04062
985.500	10147.13	0.05319	0.00708	0.01287	0.02288	0.0401
986.000	10141.99	0.05177	0.005824	0.01031	0.02409	0.04221
986.500	10136.85	0.04963	0.005467	0.01055	0.02431	0.04439
987.000	10131.71	0.04916	0.005871	0.01373	0.02374	0.04453
987.500	10126.58	0.04819	0.004878	0.01542	0.02333	0.0449
988.000	10121.46	0.04631	0.002922	0.01392	0.02317	0.04542
988.500	10116.34	0.04628	0.003267	0.01234	0.0224	0.04285
989.000	10111.22	0.04768	0.003714	0.01319	0.02192	0.04072
989.500	10106.11	0.04933	0.003258	0.01535	0.02222	0.04144
990.000	10101.01	0.05065	0.005096	0.01372	0.02223	0.04205
990.500	10095.91	0.05055	0.006128	0.01231	0.02176	0.04215
991.000	10090.82	0.0494	0.003982	0.01494	0.02144	0.04235
991.500	10085.73	0.05033	0.003353	0.01689	0.02237	0.04249
992.000	10080.65	0.05073	0.004711	0.01692	0.02302	0.04249
992.500	10075.57	0.0485	0.005859	0.01621	0.0221	0.04209
993.000	10070.49	0.05069	0.005492	0.01537	0.02259	0.04056
993.500	10065.43	0.05378	0.005908	0.01523	0.02255	0.04
994.000	10060.36	0.05044	0.009513	0.01607	0.01928	0.04231
994.500	10055.30	0.04932	0.01107	0.01573	0.01991	0.04245
995.000	10050.25	0.05016	0.007761	0.01225	0.02273	0.03959
995.500	10045.20	0.04577	0.002067	0.00667	0.02012	0.03775
996.000	10040.16	0.04537	0.002754	0.00917	0.02078	0.03959
996.500	10035.12	0.05049	0.009258	0.01737	0.02568	0.04319
997.000	10030.09	0.05134	0.01065	0.01601	0.02509	0.04342
997.500	10025.06	0.05002	0.006837	0.01231	0.02449	0.04292
998.000	10020.04	0.04978	0.002913	0.01252	0.02636	0.04279
998.500	10015.02	0.04954	0.004271	0.01171	0.02335	0.03946
999.000	10010.01	0.04791	0.006273	0.01132	0.02037	0.03745
999.500	10005.00	0.04616	0.005231	0.01295	0.02225	0.03999
1000.000	10000.00	0.04902	0.006038	0.01357	0.02439	0.04229
1000.500	9995.00	0.05149	0.007568	0.01359	0.02423	0.04337
1001.000	9990.01	0.04894	0.00673	0.0145	0.02265	0.04401
1001.500	9985.02	0.04873	0.00428	0.01556	0.02389	0.04345
1002.000	9980.04	0.04993	0.002701	0.01385	0.02508	0.04004
1002.500	9975.06	0.04877	0.003786	0.009117	0.02242	0.03534
1003.000	9970.09	0.0507	0.005216	0.01092	0.02282	0.0397
1003.500	9965.12	0.0545	0.005694	0.0159	0.02515	0.04588
1004.000	9960.16	0.05468	0.005747	0.01426	0.02324	0.04013
1004.500	9955.20	0.05374	0.006998	0.01399	0.0206	0.03828
1005.000	9950.25	0.05321	0.008282	0.01669	0.02051	0.04275
1005.500	9945.30	0.05222	0.006459	0.01568	0.02285	0.04079
1006.000	9940.36	0.05146	0.002678	0.01256	0.0231	0.03802
1006.500	9935.42	0.05063	0.001673	0.01029	0.02054	0.03865
1007.000	9930.49	0.04857	0.007784	0.01011	0.01959	0.03915
1007.500	9925.56	0.04915	0.008478	0.01105	0.01959	0.03803
1008.000	9920.63	0.05201	0.001476	0.01267	0.01939	0.0365
1008.500	9915.72	0.04962	0.004298	0.01568	0.01979	0.03745
1009.000	9910.80	0.04602	0.007592	0.01601	0.02167	0.03772
1009.500	9905.89	0.04558	0.002483	0.01226	0.02311	0.03629
1010.000	9900.99	0.04517	0.00128	0.01069	0.01858	0.03942
1010.500	9896.09	0.04686	0.003926	0.0104	0.01481	0.04172
1011.000	9891.20	0.05289	0.005529	0.009947	0.01879	0.03814
1011.500	9886.31	0.05863	0.006995	0.01483	0.02443	0.03785
1012.000	9881.42	0.05843	0.007317	0.01863	0.02545	0.04074
1012.500	9876.54	0.05162	0.005363	0.01384	0.0209	0.0417
1013.000	9871.67	0.04926	0.003999	0.01139	0.01994	0.0409
1013.500	9866.80	0.05072	0.003814	0.01274	0.0216	0.03827
1014.000	9861.93	0.04851	0.003157	0.01202	0.01941	0.03469
1014.500	9857.07	0.04789	0.001043	0.0117	0.01953	0.03665
1015.000	9852.22	0.04978	-4.712E-6	0.01249	0.02271	0.04118
1015.500	9847.37	0.04988	0.003479	0.01244	0.02348	0.03934
1016.000	9842.52	0.04897	0.006579	0.01227	0.02174	0.03852
1016.500	9837.68	0.04766	0.006058	0.01099	0.02055	0.04067
1017.000	9832.84	0.04527	0.003416	0.006721	0.02287	0.03895
1017.500	9828.01	0.04374	0.001273	0.006675	0.02255	0.03686
1018.000	9823.18	0.04512	0.002456	0.01247	0.01901	0.03794
1018.500	9818.36	0.04969	0.008075	0.01536	0.02125	0.04092
1019.000	9813.54	0.05452	0.01064	0.0166	0.02563	0.04394
1019.500	9808.73	0.05663	0.007014	0.01779	0.02669	0.04537
